reward_today,future_reward,delay,trials.thisRepN,trials.thisTrialN,trials.thisN,trials.thisIndex,fixation.started,text.started,key_resp.started,fixation.stopped,key_resp.keys,key_resp.rt,key_resp.duration,participant,session,date,expName,psychopyVersion,frameRate,
11,30,7,0,0,0,0,18.93755090200284,19.829604825004935,19.829604825004935,19.946229138004128,t,2.7174555600213353,None,155103,001,2023-11-23_22h50.03.598,discounting ,2023.1.3,60.04232143385564,
109,121,223,0,1,1,9,22.610362153995084,23.597007103002397,23.597007103002397,23.613435070001287,l,0.9641260930075077,None,155103,001,2023-11-23_22h50.03.598,discounting ,2023.1.3,60.04232143385564,
87,85,188,0,2,2,7,24.586800357996253,25.5797834279947,25.5797834279947,25.596462178000365,t,0.9701910989970202,None,155103,001,2023-11-23_22h50.03.598,discounting ,2023.1.3,60.04232143385564,
67,65,119,0,3,3,5,26.585824519992457,27.56415972999821,27.56415972999821,27.597239958995488,l,0.5393748659989797,None,155103,001,2023-11-23_22h50.03.598,discounting ,2023.1.3,60.04232143385564,
78,80,162,0,4,4,6,28.134705759992357,29.129857273001107,29.129857273001107,29.146133015005034,l,0.5514496090036118,None,155103,001,2023-11-23_22h50.03.598,discounting ,2023.1.3,60.04232143385564,
15,35,13,0,5,5,1,29.721875225004624,30.713943566996022,30.713943566996022,30.73017394800263,l,0.6927980000036769,None,155103,001,2023-11-23_22h50.03.598,discounting ,2023.1.3,60.04232143385564,
98,90,200,0,6,6,8,31.433876098992187,32.42989813799795,32.42989813799795,32.44672250900476,t,0.6154682720080018,None,155103,001,2023-11-23_22h50.03.598,discounting ,2023.1.3,60.04232143385564,
49,60,89,0,7,7,4,33.071103744994616,34.0638537289924,34.0638537289924,34.081016918993555,t,0.6648482440068619,None,155103,001,2023-11-23_22h50.03.598,discounting ,2023.1.3,60.04232143385564,
40,55,62,0,8,8,3,34.75266393899801,35.747613686995464,35.747613686995464,35.76407013699645,l,0.4068408220045967,None,155103,001,2023-11-23_22h50.03.598,discounting ,2023.1.3,60.04232143385564,
27,50,21,0,9,9,2,36.18452120399161,37.16436541899748,37.16436541899748,37.197034873999655,t,0.8649343620054424,None,155103,001,2023-11-23_22h50.03.598,discounting ,2023.1.3,60.04232143385564,
78,80,162,1,0,10,6,38.05211516900454,39.04747175499506,39.04747175499506,39.06465601899254,l,0.4178285300004063,None,155103,001,2023-11-23_22h50.03.598,discounting ,2023.1.3,60.04232143385564,
98,90,200,1,1,11,8,39.49817435200384,40.49743130199204,40.49743130199204,40.49743130199204,t,0.7398611579992576,None,155103,001,2023-11-23_22h50.03.598,discounting ,2023.1.3,60.04232143385564,
67,65,119,1,2,12,5,41.27309357699414,42.24759025199455,42.24759025199455,42.28151893499307,l,0.641029446007451,None,155103,001,2023-11-23_22h50.03.598,discounting ,2023.1.3,60.04232143385564,
27,50,21,1,3,13,2,42.9189542880049,43.91475361499761,43.91475361499761,43.9310727819975,t,0.8096969660109608,None,155103,001,2023-11-23_22h50.03.598,discounting ,2023.1.3,60.04232143385564,
49,60,89,1,4,14,4,44.752196717992774,45.74893365800381,45.74893365800381,45.7658297099988,t,1.297646357998019,None,155103,001,2023-11-23_22h50.03.598,discounting ,2023.1.3,60.04232143385564,
40,55,62,1,5,15,3,47.07248707600229,48.06498774800275,48.06498774800275,48.081893452996155,l,0.336047889009933,None,155103,001,2023-11-23_22h50.03.598,discounting ,2023.1.3,60.04232143385564,
15,35,13,1,6,16,1,48.436125555992476,49.431125105998944,49.431125105998944,49.448001523996936,l,0.8754772820102517,None,155103,001,2023-11-23_22h50.03.598,discounting ,2023.1.3,60.04232143385564,
109,121,223,1,7,17,9,50.33613885799423,51.31534021899279,51.31534021899279,51.348494453995954,l,0.5808413290214958,None,155103,001,2023-11-23_22h50.03.598,discounting ,2023.1.3,60.04232143385564,
11,30,7,1,8,18,0,51.92088930599857,52.96769020899956,52.96769020899956,52.96769020899956,t,0.4974024640105199,None,155103,001,2023-11-23_22h50.03.598,discounting ,2023.1.3,60.04232143385564,
87,85,188,1,9,19,7,53.48805072400137,54.48159136599861,54.48159136599861,54.498147367005004,t,1.1701140079967445,None,155103,001,2023-11-23_22h50.03.598,discounting ,2023.1.3,60.04232143385564,
15,35,13,2,0,20,1,55.68596337499912,56.66495347699674,56.66495347699674,56.69866395500139,l,0.30515767000906635,None,155103,001,2023-11-23_22h50.03.598,discounting ,2023.1.3,60.04232143385564,
27,50,21,2,1,21,2,57.01031640199653,57.983573429999524,57.983573429999524,58.015401759999804,l,0.4489966840046691,None,155103,001,2023-11-23_22h50.03.598,discounting ,2023.1.3,60.04232143385564,
49,60,89,2,2,22,4,58.45763307399466,59.44888305499626,59.44888305499626,59.466212102997815,l,0.46581170099671,None,155103,001,2023-11-23_22h50.03.598,discounting ,2023.1.3,60.04232143385564,
109,121,223,2,3,23,9,59.93779055499181,60.93224806699436,60.93224806699436,60.948691869998584,t,0.6573621599964099,None,155103,001,2023-11-23_22h50.03.598,discounting ,2023.1.3,60.04232143385564,
67,65,119,2,4,24,5,61.621150555001805,62.60024475699174,62.60024475699174,62.63342961399758,t,0.5597055160033051,None,155103,001,2023-11-23_22h50.03.598,discounting ,2023.1.3,60.04232143385564,
98,90,200,2,5,25,8,63.18692640999507,64.18241266399855,64.18241266399855,64.19927781200386,t,0.4925099450047128,None,155103,001,2023-11-23_22h50.03.598,discounting ,2023.1.3,60.04232143385564,
87,85,188,2,6,26,7,64.7042991950002,65.68269334800425,65.68269334800425,65.71606389099907,l,0.48961464801686816,None,155103,001,2023-11-23_22h50.03.598,discounting ,2023.1.3,60.04232143385564,
11,30,7,2,7,27,0,66.20404599199537,67.19988788399496,67.19988788399496,67.21646494900051,l,0.2887870520062279,None,155103,001,2023-11-23_22h50.03.598,discounting ,2023.1.3,60.04232143385564,
40,55,62,2,8,28,3,67.52068679500371,68.5161269740056,68.5161269740056,68.53231477399822,t,0.5666801420156844,None,155103,001,2023-11-23_22h50.03.598,discounting ,2023.1.3,60.04232143385564,
78,80,162,2,9,29,6,69.10737176900147,70.09968031599419,70.09968031599419,70.11647185399488,l,0.985931701012305,None,155103,001,2023-11-23_22h50.03.598,discounting ,2023.1.3,60.04232143385564,
98,90,200,3,0,30,8,71.12075051899592,72.11644272900594,72.11644272900594,72.13371036699391,t,0.5544438630022341,None,155103,001,2023-11-23_22h50.03.598,discounting ,2023.1.3,60.04232143385564,
11,30,7,3,1,31,0,72.70424853199802,73.68456367000181,73.68456367000181,73.71660125999188,t,1.1017215140163898,None,155103,001,2023-11-23_22h50.03.598,discounting ,2023.1.3,60.04232143385564,
27,50,21,3,2,32,2,74.82040203499491,75.81634099499206,75.81634099499206,75.83330148400273,t,2.043372943997383,None,155103,001,2023-11-23_22h50.03.598,discounting ,2023.1.3,60.04232143385564,
15,35,13,3,3,33,1,77.88806420800393,78.88347273500403,78.88347273500403,78.90053024000372,l,0.2762775029987097,None,155103,001,2023-11-23_22h50.03.598,discounting ,2023.1.3,60.04232143385564,
87,85,188,3,4,34,7,79.18728632500279,80.1668191600038,80.1668191600038,80.20069793000584,t,0.7487756260088645,None,155103,001,2023-11-23_22h50.03.598,discounting ,2023.1.3,60.04232143385564,
49,60,89,3,5,35,4,80.9388220730034,81.93369110299682,81.93369110299682,81.9501987160038,l,1.483776751003461,None,155103,001,2023-11-23_22h50.03.598,discounting ,2023.1.3,60.04232143385564,
40,55,62,3,6,36,3,83.4394998899952,84.43378559099801,84.43378559099801,84.4506838429952,t,0.5991131150076399,None,155103,001,2023-11-23_22h50.03.598,discounting ,2023.1.3,60.04232143385564,
67,65,119,3,7,37,5,85.0578165140032,86.05170145900047,86.05170145900047,86.06884939900192,l,0.4323676590138348,None,155103,001,2023-11-23_22h50.03.598,discounting ,2023.1.3,60.04232143385564,
109,121,223,3,8,38,9,86.50772739799868,87.50071644400305,87.50071644400305,87.51732311300293,l,0.5181703530106461,None,155103,001,2023-11-23_22h50.03.598,discounting ,2023.1.3,60.04232143385564,
78,80,162,3,9,39,6,88.0559452400048,89.05070101399906,89.05070101399906,89.06775123099214,t,0.4985574280144647,None,155103,001,2023-11-23_22h50.03.598,discounting ,2023.1.3,60.04232143385564,
87,85,188,4,0,40,7,89.57353290199535,90.56776508399344,90.56776508399344,90.58427635699627,t,0.43882342299912125,None,155103,001,2023-11-23_22h50.03.598,discounting ,2023.1.3,60.04232143385564,
40,55,62,4,1,41,3,91.03915469399362,92.03456597900367,92.03456597900367,92.0517421389959,l,0.3673213930160273,None,155103,001,2023-11-23_22h50.03.598,discounting ,2023.1.3,60.04232143385564,
15,35,13,4,2,42,1,92.43421768400003,93.43458150999504,93.43458150999504,93.43458150999504,l,0.3711477770120837,None,155103,001,2023-11-23_22h50.03.598,discounting ,2023.1.3,60.04232143385564,
67,65,119,4,3,43,5,93.84798666500137,94.83468651899602,94.83468651899602,94.85206444100186,l,0.6071096120140282,None,155103,001,2023-11-23_22h50.03.598,discounting ,2023.1.3,60.04232143385564,
109,121,223,4,4,44,9,95.47269554299419,96.46870440599741,96.46870440599741,96.48579662399425,t,0.3275027119962033,None,155103,001,2023-11-23_22h50.03.598,discounting ,2023.1.3,60.04232143385564,
98,90,200,4,5,45,8,96.82351076700434,97.81846708999365,97.81846708999365,97.83507684800134,t,0.5608785610093037,None,155103,001,2023-11-23_22h50.03.598,discounting ,2023.1.3,60.04232143385564,
49,60,89,4,6,46,4,98.40570276899962,99.40183729799173,99.40183729799173,99.4180285409966,l,0.409389224005281,None,155103,001,2023-11-23_22h50.03.598,discounting ,2023.1.3,60.04232143385564,
11,30,7,4,7,47,0,99.83957047600416,100.81823314099165,100.81823314099165,100.85147126100492,l,0.4236463730048854,None,155103,001,2023-11-23_22h50.03.598,discounting ,2023.1.3,60.04232143385564,
27,50,21,4,8,48,2,101.2717391000042,102.25156557299488,102.25156557299488,102.28547127399361,t,0.5110223610099638,None,155103,001,2023-11-23_22h50.03.598,discounting ,2023.1.3,60.04232143385564,
78,80,162,4,9,49,6,102.79454213600548,103.78519814100582,103.78519814100582,103.80325997699401,t,0.44390939600998536,None,155103,001,2023-11-23_22h50.03.598,discounting ,2023.1.3,60.04232143385564,
98,90,200,5,0,50,8,104.25733127599233,105.25188027300464,105.25188027300464,105.26894438300224,t,1.0871959369978867,None,155103,001,2023-11-23_22h50.03.598,discounting ,2023.1.3,60.04232143385564,
67,65,119,5,1,51,5,106.37277924999944,107.3517183560034,107.3517183560034,107.38552948000142,t,1.0595189520099666,None,155103,001,2023-11-23_22h50.03.598,discounting ,2023.1.3,60.04232143385564,
109,121,223,5,2,52,9,108.44166383999982,109.43579163200047,109.43579163200047,109.45267632999457,l,0.27540419800789095,None,155103,001,2023-11-23_22h50.03.598,discounting ,2023.1.3,60.04232143385564,
78,80,162,5,3,53,6,109.73991361199296,110.73570842199842,110.73570842199842,110.752750404994,l,1.784244727998157,None,155103,001,2023-11-23_22h50.03.598,discounting ,2023.1.3,60.04232143385564,
49,60,89,5,4,54,4,112.55386587200337,113.55296555500536,113.55296555500536,113.55296555500536,t,1.2092550090019358,None,155103,001,2023-11-23_22h50.03.598,discounting ,2023.1.3,60.04232143385564,
27,50,21,5,5,55,2,114.79054737699335,115.786318657003,115.786318657003,115.80271885900584,t,0.6005243240069831,None,155103,001,2023-11-23_22h50.03.598,discounting ,2023.1.3,60.04232143385564,
40,55,62,5,6,56,3,116.41935892999754,117.4202086400037,117.4202086400037,117.4202086400037,l,0.9319406150025316,None,155103,001,2023-11-23_22h50.03.598,discounting ,2023.1.3,60.04232143385564,
87,85,188,5,7,57,7,118.37712855800055,119.36881808299222,119.36881808299222,119.38662313600071,t,0.4827896780043375,None,155103,001,2023-11-23_22h50.03.598,discounting ,2023.1.3,60.04232143385564,
11,30,7,5,8,58,0,119.87509709699953,120.87041061399214,120.87041061399214,120.88672854600009,t,0.3006025940121617,None,155103,001,2023-11-23_22h50.03.598,discounting ,2023.1.3,60.04232143385564,
15,35,13,5,9,59,1,121.20843757399416,122.20314825700189,122.20314825700189,122.21972649700183,l,0.581959249015199,None,155103,001,2023-11-23_22h50.03.598,discounting ,2023.1.3,60.04232143385564,
15,35,13,6,0,60,1,122.80435286299326,123.80349928600481,123.80349928600481,123.80349928600481,t,0.3508904330083169,None,155103,001,2023-11-23_22h50.03.598,discounting ,2023.1.3,60.04232143385564,
98,90,200,6,1,61,8,124.18659744100296,125.18652501699398,125.18652501699398,125.18652501699398,l,0.4189273480005795,None,155103,001,2023-11-23_22h50.03.598,discounting ,2023.1.3,60.04232143385564,
87,85,188,6,2,62,7,125.64253689500038,126.6371825660026,126.6371825660026,126.6539805939974,l,0.27236953300598543,None,155103,001,2023-11-23_22h50.03.598,discounting ,2023.1.3,60.04232143385564,
11,30,7,6,3,63,0,126.94199812899751,127.92110421799589,127.92110421799589,127.95475287700538,t,0.4806942940049339,None,155103,001,2023-11-23_22h50.03.598,discounting ,2023.1.3,60.04232143385564,
27,50,21,6,4,64,2,128.42700243799482,129.42003690400452,129.42003690400452,129.436868624005,l,0.4218321260123048,None,155103,001,2023-11-23_22h50.03.598,discounting ,2023.1.3,60.04232143385564,
109,121,223,6,5,65,9,129.87458759000583,130.87090898699535,130.87090898699535,130.88707771299232,t,8.075317205002648,None,155103,001,2023-11-23_22h50.03.598,discounting ,2023.1.3,60.04232143385564,
49,60,89,6,6,66,4,138.97495562599215,139.95488847899833,139.95488847899833,139.98763234600483,l,0.20011333700676914,None,155103,001,2023-11-23_22h50.03.598,discounting ,2023.1.3,60.04232143385564,
40,55,62,6,7,67,3,140.17769035800302,141.17177130100026,141.17177130100026,141.1884598559991,t,0.30205890101206023,None,155103,001,2023-11-23_22h50.03.598,discounting ,2023.1.3,60.04232143385564,
78,80,162,6,8,68,6,141.50890906399582,142.5043705959979,142.5043705959979,142.52109638499678,l,0.5320809080149047,None,155103,001,2023-11-23_22h50.03.598,discounting ,2023.1.3,60.04232143385564,
67,65,119,6,9,69,5,143.06119825200585,144.05505593400449,144.05505593400449,144.07186633899983,t,0.46487100000376813,None,155103,001,2023-11-23_22h50.03.598,discounting ,2023.1.3,60.04232143385564,
87,85,188,7,0,70,7,144.54399650399864,145.5373373820039,145.5373373820039,145.554269603992,t,0.7199243640061468,None,155103,001,2023-11-23_22h50.03.598,discounting ,2023.1.3,60.04232143385564,
98,90,200,7,1,71,8,146.29267915399396,147.2722804889927,147.2722804889927,147.30492960399715,t,2.1513757270149654,None,155103,001,2023-11-23_22h50.03.598,discounting ,2023.1.3,60.04232143385564,
15,35,13,7,2,72,1,149.45495910500176,150.45521603799716,150.45521603799716,150.45521603799716,t,0.5155429980077315,None,155103,001,2023-11-23_22h50.03.598,discounting ,2023.1.3,60.04232143385564,
11,30,7,7,3,73,0,150.99463005199505,151.98895912799344,151.98895912799344,152.0051408349973,t,1.3666229950176785,None,155103,001,2023-11-23_22h50.03.598,discounting ,2023.1.3,60.04232143385564,
109,121,223,7,4,74,9,153.3784393829992,154.372157425998,154.372157425998,154.38868347099924,l,0.29355477400531527,None,155103,001,2023-11-23_22h50.03.598,discounting ,2023.1.3,60.04232143385564,
27,50,21,7,5,75,2,154.69226050299767,155.68904779100558,155.68904779100558,155.70543331600493,l,0.9332589950063266,None,155103,001,2023-11-23_22h50.03.598,discounting ,2023.1.3,60.04232143385564,
40,55,62,7,6,76,3,156.64613878600358,157.63897425499454,157.63897425499454,157.65620272800152,l,1.089598411010229,None,155103,001,2023-11-23_22h50.03.598,discounting ,2023.1.3,60.04232143385564,
67,65,119,7,7,77,5,158.76007417299843,159.73937656100316,159.73937656100316,159.77215149899712,l,0.8184474220179254,None,155103,001,2023-11-23_22h50.03.598,discounting ,2023.1.3,60.04232143385564,
49,60,89,7,8,78,4,160.59387379100372,161.57226809099666,161.57226809099666,161.6066062769969,t,0.7745872560044518,None,155103,001,2023-11-23_22h50.03.598,discounting ,2023.1.3,60.04232143385564,
78,80,162,7,9,79,6,162.37737162299163,163.37252734199865,163.37252734199865,163.3892459070048,l,0.45724628001335077,None,155103,001,2023-11-23_22h50.03.598,discounting ,2023.1.3,60.04232143385564,
109,121,223,8,0,80,9,163.86055623399443,164.85657508700388,164.85657508700388,164.87306990400248,l,0.6185169060045155,None,155103,001,2023-11-23_22h50.03.598,discounting ,2023.1.3,60.04232143385564,
49,60,89,8,1,81,4,165.50808526200126,166.50620469800197,166.50620469800197,166.50620469800197,t,0.5271669450012268,None,155103,001,2023-11-23_22h50.03.598,discounting ,2023.1.3,60.04232143385564,
27,50,21,8,2,82,2,167.0605881090014,168.0560265499953,168.0560265499953,168.07334238399926,t,0.39065068401396275,None,155103,001,2023-11-23_22h50.03.598,discounting ,2023.1.3,60.04232143385564,
15,35,13,8,3,83,1,168.4765452319989,169.4565003119933,169.4565003119933,169.4902761150006,l,0.28520558700256515,None,155103,001,2023-11-23_22h50.03.598,discounting ,2023.1.3,60.04232143385564,
78,80,162,8,4,84,6,169.7742661319935,170.77338627100107,170.77338627100107,170.78977314599615,l,0.26835128701350186,None,155103,001,2023-11-23_22h50.03.598,discounting ,2023.1.3,60.04232143385564,
87,85,188,8,5,85,7,171.07757456999389,172.0735120600002,172.0735120600002,172.09010085499904,t,0.45215185500273947,None,155103,001,2023-11-23_22h50.03.598,discounting ,2023.1.3,60.04232143385564,
67,65,119,8,6,86,5,172.55865222000284,173.55728094400547,173.55728094400547,173.57367772300495,l,0.6720340740139363,None,155103,001,2023-11-23_22h50.03.598,discounting ,2023.1.3,60.04232143385564,
40,55,62,8,7,87,3,174.26164447399788,175.25601920299232,175.25601920299232,175.27357097399363,t,0.5244288760004565,None,155103,001,2023-11-23_22h50.03.598,discounting ,2023.1.3,60.04232143385564,
98,90,200,8,8,88,8,175.81045019200246,176.79081055900315,176.79081055900315,176.82370554900263,t,0.6737584990041796,None,155103,001,2023-11-23_22h50.03.598,discounting ,2023.1.3,60.04232143385564,
11,30,7,8,9,89,0,177.49414806200366,178.47362806300225,178.47362806300225,178.50796480900317,l,0.6156045070092659,None,155103,001,2023-11-23_22h50.03.598,discounting ,2023.1.3,60.04232143385564,
40,55,62,9,0,90,3,179.11261959599506,180.1075271919981,180.1075271919981,180.12370107100287,l,0.43309524201322347,None,155103,001,2023-11-23_22h50.03.598,discounting ,2023.1.3,60.04232143385564,
49,60,89,9,1,91,4,180.56504756599315,181.55779009099933,181.55779009099933,181.57362654499593,t,1.0164032300090184,None,155103,001,2023-11-23_22h50.03.598,discounting ,2023.1.3,60.04232143385564,
78,80,162,9,2,92,6,182.5970449400047,183.59085796900035,183.59085796900035,183.6073885569931,l,0.4655636590177892,None,155103,001,2023-11-23_22h50.03.598,discounting ,2023.1.3,60.04232143385564,
109,121,223,9,3,93,9,184.07926116300223,185.07406783799524,185.07406783799524,185.09054249500332,l,0.5502128320076736,None,155103,001,2023-11-23_22h50.03.598,discounting ,2023.1.3,60.04232143385564,
27,50,21,9,4,94,2,185.64691710700572,186.64155533799203,186.64155533799203,186.65786366499378,t,0.7558705400006147,None,155103,001,2023-11-23_22h50.03.598,discounting ,2023.1.3,60.04232143385564,
98,90,200,9,5,95,8,187.42880048700317,188.4076472529996,188.4076472529996,188.44076774299901,l,0.42823911500454415,None,155103,001,2023-11-23_22h50.03.598,discounting ,2023.1.3,60.04232143385564,
11,30,7,9,6,96,0,188.86358710299828,189.85825393500272,189.85825393500272,189.87493517999246,t,0.6846076039946638,None,155103,001,2023-11-23_22h50.03.598,discounting ,2023.1.3,60.04232143385564,
67,65,119,9,7,97,5,190.5669447149994,191.55775124799402,191.55775124799402,191.57491542299977,l,0.23417868500109762,None,155103,001,2023-11-23_22h50.03.598,discounting ,2023.1.3,60.04232143385564,
87,85,188,9,8,98,7,191.8415126339969,192.82487344100082,192.82487344100082,192.8420396809961,t,0.02453426101419609,None,155103,001,2023-11-23_22h50.03.598,discounting ,2023.1.3,60.04232143385564,
15,35,13,9,9,99,1,192.8795461730042,193.87485125800595,193.87485125800595,193.89198724400194,l,0.5841546230076347,None,155103,001,2023-11-23_22h50.03.598,discounting ,2023.1.3,60.04232143385564,
11,30,7,10,0,100,0,194.49179361999268,195.4917339609965,195.4917339609965,195.4917339609965,t,0.3506526140117785,None,155103,001,2023-11-23_22h50.03.598,discounting ,2023.1.3,60.04232143385564,
109,121,223,10,1,101,9,195.8920846139954,196.87451168299594,196.87451168299594,196.8920828709961,t,0.7533091650111601,None,155103,001,2023-11-23_22h50.03.598,discounting ,2023.1.3,60.04232143385564,
98,90,200,10,2,102,8,197.65900396100187,198.6584007920028,198.6584007920028,198.6584007920028,l,0.4060642490076134,None,155103,001,2023-11-23_22h50.03.598,discounting ,2023.1.3,60.04232143385564,
15,35,13,10,3,103,1,199.09658682400186,200.09170423199248,200.09170423199248,200.1082955419988,l,0.2558753000048455,None,155103,001,2023-11-23_22h50.03.598,discounting ,2023.1.3,60.04232143385564,
78,80,162,10,4,104,6,200.3797987269936,201.37437565899745,201.37437565899745,201.39210651400208,l,0.22618901600071695,None,155103,001,2023-11-23_22h50.03.598,discounting ,2023.1.3,60.04232143385564,
87,85,188,10,5,105,7,201.62887987900467,202.60867524999776,202.60867524999776,202.64220491200103,l,0.2695590840012301,None,155103,001,2023-11-23_22h50.03.598,discounting ,2023.1.3,60.04232143385564,
40,55,62,10,6,106,3,202.91396974699455,203.909210799,203.909210799,203.9254696249991,t,0.5066272810072405,None,155103,001,2023-11-23_22h50.03.598,discounting ,2023.1.3,60.04232143385564,
49,60,89,10,7,107,4,204.44672687699494,205.44256385799963,205.44256385799963,205.45969979699294,t,0.41905516901169904,None,155103,001,2023-11-23_22h50.03.598,discounting ,2023.1.3,60.04232143385564,
27,50,21,10,8,108,2,205.89689158300462,206.87596616099472,206.87596616099472,206.9092079779948,l,0.2498336140124593,None,155103,001,2023-11-23_22h50.03.598,discounting ,2023.1.3,60.04232143385564,
67,65,119,10,9,109,5,207.14853500299796,208.14360200100054,208.14360200100054,208.16033427500224,t,0.23055070500413422,None,155103,001,2023-11-23_22h50.03.598,discounting ,2023.1.3,60.04232143385564,
67,65,119,11,0,110,5,208.3946229580033,209.39312476299528,209.39312476299528,209.40885373599303,t,0.0979723810160067,None,155103,001,2023-11-23_22h50.03.598,discounting ,2023.1.3,60.04232143385564,
11,30,7,11,1,111,0,209.51490986600402,210.51044440899568,210.51044440899568,210.5266970849916,l,0.5307941110077081,None,155103,001,2023-11-23_22h50.03.598,discounting ,2023.1.3,60.04232143385564,
87,85,188,11,2,112,7,211.06489645599504,212.05963930899452,212.05963930899452,212.07598258600046,l,0.48120369101525284,None,155103,001,2023-11-23_22h50.03.598,discounting ,2023.1.3,60.04232143385564,
78,80,162,11,3,113,6,212.5654473379982,213.55927628699283,213.55927628699283,213.5765126460028,l,0.4611682750110049,None,155103,001,2023-11-23_22h50.03.598,discounting ,2023.1.3,60.04232143385564,
27,50,21,11,4,114,2,214.0473003359948,215.02632135199383,215.02632135199383,215.05925690199365,t,0.381863237998914,None,155103,001,2023-11-23_22h50.03.598,discounting ,2023.1.3,60.04232143385564,
109,121,223,11,5,115,9,215.4319678210013,216.4268648159923,216.4268648159923,216.442685875998,t,0.30258657300146297,None,155103,001,2023-11-23_22h50.03.598,discounting ,2023.1.3,60.04232143385564,
40,55,62,11,6,116,3,216.764029760001,217.76034650699876,217.76034650699876,217.7763693989982,t,0.45363306401122827,None,155103,001,2023-11-23_22h50.03.598,discounting ,2023.1.3,60.04232143385564,
49,60,89,11,7,117,4,218.24720461700053,219.2267720700038,219.2267720700038,219.25971894999384,l,0.10616995100281201,None,155103,001,2023-11-23_22h50.03.598,discounting ,2023.1.3,60.04232143385564,
98,90,200,11,8,118,8,219.3676242569927,220.36053866999282,220.36053866999282,220.37729056300304,l,0.2836656910076272,None,155103,001,2023-11-23_22h50.03.598,discounting ,2023.1.3,60.04232143385564,
15,35,13,11,9,119,1,220.66659642499872,221.66050958499545,221.66050958499545,221.67676728199876,t,0.32421353600511793,None,155103,001,2023-11-23_22h50.03.598,discounting ,2023.1.3,60.04232143385564,
27,50,21,12,0,120,2,222.01500129800115,223.01107571899774,223.01107571899774,223.02757856200333,l,0.29231746900768485,None,155103,001,2023-11-23_22h50.03.598,discounting ,2023.1.3,60.04232143385564,
11,30,7,12,1,121,0,223.33081968199986,224.3104573169985,224.3104573169985,224.34406218500226,l,0.04274192800221499,None,155103,001,2023-11-23_22h50.03.598,discounting ,2023.1.3,60.04232143385564,
67,65,119,12,2,122,5,224.38190467699314,225.37687613800517,225.37687613800517,225.39374040300027,t,0.3331147860153578,None,155103,001,2023-11-23_22h50.03.598,discounting ,2023.1.3,60.04232143385564,
109,121,223,12,3,123,9,225.73274530700292,226.72774286099593,226.72774286099593,226.74359090000507,l,0.6161067299981369,None,155103,001,2023-11-23_22h50.03.598,discounting ,2023.1.3,60.04232143385564,
49,60,89,12,4,124,4,227.36705413299205,228.3605568399944,228.3605568399944,228.377072200994,t,0.14458522500353865,None,155103,001,2023-11-23_22h50.03.598,discounting ,2023.1.3,60.04232143385564,
40,55,62,12,5,125,3,228.531726383997,229.52723917900585,229.52723917900585,229.54394852899713,l,0.1730552650114987,None,155103,001,2023-11-23_22h50.03.598,discounting ,2023.1.3,60.04232143385564,
98,90,200,12,6,126,8,229.73202178100473,230.7275070290052,230.7275070290052,230.74443334099487,l,0.25718377201701514,None,155103,001,2023-11-23_22h50.03.598,discounting ,2023.1.3,60.04232143385564,
78,80,162,12,7,127,6,231.01433970399376,231.99445655399177,231.99445655399177,232.02781841099204,t,0.22730427300848532,None,155103,001,2023-11-23_22h50.03.598,discounting ,2023.1.3,60.04232143385564,
15,35,13,12,8,128,1,232.24892221599293,233.22736317499948,233.22736317499948,233.26073366399214,l,0.1561882750102086,None,155103,001,2023-11-23_22h50.03.598,discounting ,2023.1.3,60.04232143385564,
87,85,188,12,9,129,7,233.4150315970037,234.39442704399698,234.39442704399698,234.42736416599655,t,0.5584466980071738,None,155103,001,2023-11-23_22h50.03.598,discounting ,2023.1.3,60.04232143385564,
15,35,13,13,0,130,1,234.98155526499613,235.9608161549986,235.9608161549986,235.99457894600346,t,0.20137269100814592,None,155103,001,2023-11-23_22h50.03.598,discounting ,2023.1.3,60.04232143385564,
98,90,200,13,1,131,8,236.19960008199268,237.1942724649998,237.1942724649998,237.21135330399557,t,0.11844635401212145,None,155103,001,2023-11-23_22h50.03.598,discounting ,2023.1.3,60.04232143385564,
11,30,7,13,2,132,0,237.34846243400534,238.3449381149985,238.3449381149985,238.36133687999973,t,0.051322279003215954,None,155103,001,2023-11-23_22h50.03.598,discounting ,2023.1.3,60.04232143385564,
78,80,162,13,3,133,6,238.4278303829924,239.4277528800012,239.4277528800012,239.4277528800012,l,0.45146038400707766,None,155103,001,2023-11-23_22h50.03.598,discounting ,2023.1.3,60.04232143385564,
87,85,188,13,4,134,7,239.91607598800329,240.9109882049961,240.9109882049961,240.92838677299733,l,0.3845050120144151,None,155103,001,2023-11-23_22h50.03.598,discounting ,2023.1.3,60.04232143385564,
109,121,223,13,5,135,9,241.32759792699653,242.32786973800103,242.32786973800103,242.32786973800103,l,0.25461956900835503,None,155103,001,2023-11-23_22h50.03.598,discounting ,2023.1.3,60.04232143385564,
40,55,62,13,6,136,3,242.61590726800205,243.61159415000293,243.61159415000293,243.6282052500028,l,0.13921934901736677,None,155103,001,2023-11-23_22h50.03.598,discounting ,2023.1.3,60.04232143385564,
27,50,21,13,7,137,2,243.78266473600524,244.77790210700186,244.77790210700186,244.79562107499805,t,0.20791211500181817,None,155103,001,2023-11-23_22h50.03.598,discounting ,2023.1.3,60.04232143385564,
49,60,89,13,8,138,4,245.01614287799748,246.01183262300037,246.01183262300037,246.02855865299352,l,0.21990047600411344,None,155103,001,2023-11-23_22h50.03.598,discounting ,2023.1.3,60.04232143385564,
67,65,119,13,9,139,5,246.27084570599254,247.262081673005,247.262081673005,247.2787193539989,t,0.15575160899607,None,155103,001,2023-11-23_22h50.03.598,discounting ,2023.1.3,60.04232143385564,
109,121,223,14,0,140,9,247.4500819429959,248.44521253899438,248.44521253899438,248.46246654499555,l,0.026511249001487158,None,155103,001,2023-11-23_22h50.03.598,discounting ,2023.1.3,60.04232143385564,
67,65,119,14,1,141,5,248.5002869759919,249.4973886289954,249.4973886289954,249.51250111099216,l,0.5061117010045564,None,155103,001,2023-11-23_22h50.03.598,discounting ,2023.1.3,60.04232143385564,
98,90,200,14,2,142,8,250.0337090319954,251.04342239399557,251.04342239399557,251.06234188399685,l,0.2279155480064219,None,155103,001,2023-11-23_22h50.03.598,discounting ,2023.1.3,60.04232143385564,
87,85,188,14,3,143,7,251.30056568900181,252.2952482069959,252.2952482069959,252.312175072002,l,0.12411791599879507,None,155103,001,2023-11-23_22h50.03.598,discounting ,2023.1.3,60.04232143385564,
49,60,89,14,4,144,4,252.45017389899294,253.44571042399912,253.44571042399912,253.46246693699504,l,0.265578798003844,None,155103,001,2023-11-23_22h50.03.598,discounting ,2023.1.3,60.04232143385564,
27,50,21,14,5,145,2,253.73483823200513,254.72966497899324,254.72966497899324,254.74640534400532,t,0.02047543801018037,None,155103,001,2023-11-23_22h50.03.598,discounting ,2023.1.3,60.04232143385564,
15,35,13,14,6,146,1,254.7836611870007,255.77914548199624,255.77914548199624,255.7961412440054,t,0.34987319400534034,None,155103,001,2023-11-23_22h50.03.598,discounting ,2023.1.3,60.04232143385564,
11,30,7,14,7,147,0,256.15107009500207,257.1453981119994,257.1453981119994,257.1627600770007,l,0.18175217301177327,None,155103,001,2023-11-23_22h50.03.598,discounting ,2023.1.3,60.04232143385564,
78,80,162,14,8,148,6,257.35111614799825,258.34592410799814,258.34592410799814,258.36250059699523,l,0.2617033499991521,None,155103,001,2023-11-23_22h50.03.598,discounting ,2023.1.3,60.04232143385564,
40,55,62,14,9,149,3,258.63553234799474,259.63025120299426,259.63025120299426,259.6469963959971,l,0.33371960700605996,None,155103,001,2023-11-23_22h50.03.598,discounting ,2023.1.3,60.04232143385564,
27,50,21,15,0,150,2,259.9967219349928,260.9966328809969,260.9966328809969,260.9966328809969,t,0.8255668850033544,None,155103,001,2023-11-23_22h50.03.598,discounting ,2023.1.3,60.04232143385564,
11,30,7,15,1,151,0,261.85040345399466,262.8299425699952,262.8299425699952,262.8627218460024,l,0.2845821240043733,None,155103,001,2023-11-23_22h50.03.598,discounting ,2023.1.3,60.04232143385564,
15,35,13,15,2,152,1,263.15112211600353,264.14602134800225,264.14602134800225,264.1635731330025,t,0.1685296160139842,None,155103,001,2023-11-23_22h50.03.598,discounting ,2023.1.3,60.04232143385564,
49,60,89,15,3,153,4,264.34727603799547,265.3464816479973,265.3464816479973,265.3464816479973,l,0.023298797008465044,None,155103,001,2023-11-23_22h50.03.598,discounting ,2023.1.3,60.04232143385564,
40,55,62,15,4,154,3,265.4005673979991,266.396355845005,266.396355845005,266.4134277629928,t,0.2107529110071482,None,155103,001,2023-11-23_22h50.03.598,discounting ,2023.1.3,60.04232143385564,
87,85,188,15,5,155,7,266.63449256100284,267.61445527699834,267.61445527699834,267.64673737299745,l,0.13939094301895238,None,155103,001,2023-11-23_22h50.03.598,discounting ,2023.1.3,60.04232143385564,
109,121,223,15,6,156,9,267.7843475959962,268.7805449709995,268.7805449709995,268.79677126699244,t,0.3805043080064934,None,155103,001,2023-11-23_22h50.03.598,discounting ,2023.1.3,60.04232143385564,
98,90,200,15,7,157,8,269.1848558259953,270.1638917819946,270.1638917819946,270.19650664199435,l,0.3504836670035729,None,155103,001,2023-11-23_22h50.03.598,discounting ,2023.1.3,60.04232143385564,
78,80,162,15,8,158,6,270.546715724995,271.54678680500365,271.54678680500365,271.54678680500365,t,0.20403949200408533,None,155103,001,2023-11-23_22h50.03.598,discounting ,2023.1.3,60.04232143385564,
67,65,119,15,9,159,5,271.7858897050028,272.7804111019941,272.7804111019941,272.79711029000464,l,0.16896873300720472,None,155103,001,2023-11-23_22h50.03.598,discounting ,2023.1.3,60.04232143385564,
27,50,21,16,0,160,2,272.98344132999773,273.9801904449996,273.9801904449996,273.99679317499977,t,0.274329359002877,None,155103,001,2023-11-23_22h50.03.598,discounting ,2023.1.3,60.04232143385564,
49,60,89,16,1,161,4,274.2837254229962,275.26368115699734,275.26368115699734,275.29684336199716,t,0.17551170900696889,None,155103,001,2023-11-23_22h50.03.598,discounting ,2023.1.3,60.04232143385564,
78,80,162,16,2,162,6,275.4682457949966,276.4479330519971,276.4479330519971,276.4802827419917,l,0.5885429790068883,None,155103,001,2023-11-23_22h50.03.598,discounting ,2023.1.3,60.04232143385564,
11,30,7,16,3,163,0,277.06853946699994,278.0468803959957,278.0468803959957,278.08085200299683,l,0.3165941220067907,None,155103,001,2023-11-23_22h50.03.598,discounting ,2023.1.3,60.04232143385564,
98,90,200,16,4,164,8,278.38654192000104,279.38053434299945,279.38053434299945,279.39759792799305,l,1.3555361780017847,None,155103,001,2023-11-23_22h50.03.598,discounting ,2023.1.3,60.04232143385564,
109,121,223,16,5,165,9,280.76974658100517,281.74724807500024,281.74724807500024,281.7808758989995,t,0.30996889900416136,None,155103,001,2023-11-23_22h50.03.598,discounting ,2023.1.3,60.04232143385564,
87,85,188,16,6,166,7,282.0855897040019,283.08121247300005,283.08121247300005,283.0981028370006,t,0.20298219300457276,None,155103,001,2023-11-23_22h50.03.598,discounting ,2023.1.3,60.04232143385564,
40,55,62,16,7,167,3,283.31822437100345,284.2982837659947,284.2982837659947,284.3312688610022,l,0.052851151005597785,None,155103,001,2023-11-23_22h50.03.598,discounting ,2023.1.3,60.04232143385564,
67,65,119,16,8,168,5,284.3848619460041,285.38086865599325,285.38086865599325,285.3976501940051,l,0.23353281400341075,None,155103,001,2023-11-23_22h50.03.598,discounting ,2023.1.3,60.04232143385564,
15,35,13,16,9,169,1,285.636692835993,286.6316680089949,286.6316680089949,286.64808911600267,l,0.40193742301198654,None,155103,001,2023-11-23_22h50.03.598,discounting ,2023.1.3,60.04232143385564,
78,80,162,17,0,170,6,287.0701872520003,288.0650068190007,288.0650068190007,288.0819641230046,l,0.7005939960072283,None,155103,001,2023-11-23_22h50.03.598,discounting ,2023.1.3,60.04232143385564,
67,65,119,17,1,171,5,288.79842199200357,289.7979187799938,289.7979187799938,289.7979187799938,t,0.250655605996144,None,155103,001,2023-11-23_22h50.03.598,discounting ,2023.1.3,60.04232143385564,
40,55,62,17,2,172,3,290.071547539992,291.0648952949996,291.0648952949996,291.08161009900505,l,0.4561891810008092,None,155103,001,2023-11-23_22h50.03.598,discounting ,2023.1.3,60.04232143385564,
109,121,223,17,3,173,9,291.55260839199764,292.54870893000043,292.54870893000043,292.56555539299734,l,0.16635987101471983,None,155103,001,2023-11-23_22h50.03.598,discounting ,2023.1.3,60.04232143385564,
11,30,7,17,4,174,0,292.7370763670042,293.73147753799276,293.73147753799276,293.74858491700434,t,0.32281420700019225,None,155103,001,2023-11-23_22h50.03.598,discounting ,2023.1.3,60.04232143385564,
87,85,188,17,5,175,7,294.08765753799526,295.08163916299236,295.08163916299236,295.0981032260024,t,0.23462852100783493,None,155103,001,2023-11-23_22h50.03.598,discounting ,2023.1.3,60.04232143385564,
49,60,89,17,6,176,4,295.3486304899998,296.3488138179964,296.3488138179964,296.3488138179964,l,0.32410202400933485,None,155103,001,2023-11-23_22h50.03.598,discounting ,2023.1.3,60.04232143385564,
15,35,13,17,7,177,1,296.7023133699986,297.6816767010023,297.6816767010023,297.715119090004,l,0.3682241860078648,None,155103,001,2023-11-23_22h50.03.598,discounting ,2023.1.3,60.04232143385564,
27,50,21,17,8,178,2,298.0821169099945,299.0831724210002,299.0831724210002,299.0831724210002,t,0.38441095600137487,None,155103,001,2023-11-23_22h50.03.598,discounting ,2023.1.3,60.04232143385564,
98,90,200,17,9,179,8,299.50371407299826,300.5000069069938,300.5000069069938,300.516354788997,l,0.3056879750074586,None,155103,001,2023-11-23_22h50.03.598,discounting ,2023.1.3,60.04232143385564,
67,65,119,18,0,180,5,300.8361159310007,301.81538975100557,301.81538975100557,301.84900120200473,t,0.32002770800318103,None,155103,001,2023-11-23_22h50.03.598,discounting ,2023.1.3,60.04232143385564,
98,90,200,18,1,181,8,302.17029988000286,303.16593569399265,303.16593569399265,303.18249869199644,l,0.33955587800301146,None,155103,001,2023-11-23_22h50.03.598,discounting ,2023.1.3,60.04232143385564,
109,121,223,18,2,182,9,303.53722075899714,304.5322087340028,304.5322087340028,304.54937740600144,l,0.6342516730073839,None,155103,001,2023-11-23_22h50.03.598,discounting ,2023.1.3,60.04232143385564,
87,85,188,18,3,183,7,305.1882753090031,306.1825858039956,306.1825858039956,306.1992130569997,l,0.3020529890054604,None,155103,001,2023-11-23_22h50.03.598,discounting ,2023.1.3,60.04232143385564,
15,35,13,18,4,184,1,306.5162395590014,307.51570245900075,307.51570245900075,307.51570245900075,t,0.05050275301618967,None,155103,001,2023-11-23_22h50.03.598,discounting ,2023.1.3,60.04232143385564,
78,80,162,18,5,185,6,307.5879603469948,308.5823917490052,308.5823917490052,308.59907323399966,l,1.5163961370126344,None,155103,001,2023-11-23_22h50.03.598,discounting ,2023.1.3,60.04232143385564,
27,50,21,18,6,186,2,310.12186177699186,311.11654377699597,311.11654377699597,311.13311945799796,l,0.42150009400211275,None,155103,001,2023-11-23_22h50.03.598,discounting ,2023.1.3,60.04232143385564,
11,30,7,18,7,187,0,311.5700647880003,312.5500680069963,312.5500680069963,312.582792657995,l,0.3151781100023072,None,155103,001,2023-11-23_22h50.03.598,discounting ,2023.1.3,60.04232143385564,
40,55,62,18,8,188,3,312.88829907799663,313.8829756530031,313.8829756530031,313.8998941579921,l,0.23066404800920282,None,155103,001,2023-11-23_22h50.03.598,discounting ,2023.1.3,60.04232143385564,
49,60,89,18,9,189,4,314.13802150099946,315.1165944509994,315.1165944509994,315.14961306599434,l,0.23283502900449093,None,155103,001,2023-11-23_22h50.03.598,discounting ,2023.1.3,60.04232143385564,
67,65,119,19,0,190,5,315.375403522994,316.3674411099928,316.3674411099928,316.3844644000055,t,0.3506654009979684,None,155103,001,2023-11-23_22h50.03.598,discounting ,2023.1.3,60.04232143385564,
15,35,13,19,1,191,1,316.74310837300436,317.73379194299923,317.73379194299923,317.7503041680029,t,0.20102804100315552,None,155103,001,2023-11-23_22h50.03.598,discounting ,2023.1.3,60.04232143385564,
40,55,62,19,2,192,3,317.971681540992,318.96696809599234,318.96696809599234,318.98370599800546,t,0.20670452101330739,None,155103,001,2023-11-23_22h50.03.598,discounting ,2023.1.3,60.04232143385564,
78,80,162,19,3,193,6,319.2045741960028,320.19929798299563,320.19929798299563,320.217520531005,l,0.21559737001371104,None,155103,001,2023-11-23_22h50.03.598,discounting ,2023.1.3,60.04232143385564,
11,30,7,19,4,194,0,320.4385059609922,321.43333536799764,321.43333536799764,321.4506144199986,l,0.48689009400550276,None,155103,001,2023-11-23_22h50.03.598,discounting ,2023.1.3,60.04232143385564,
27,50,21,19,5,195,2,321.9549298780039,322.9501578759955,322.9501578759955,322.96763267199276,l,0.1526880060118856,None,155103,001,2023-11-23_22h50.03.598,discounting ,2023.1.3,60.04232143385564,
109,121,223,19,6,196,9,323.13768380899273,324.1339902920008,324.1339902920008,324.1505043149955,t,0.44861016899812967,None,155103,001,2023-11-23_22h50.03.598,discounting ,2023.1.3,60.04232143385564,
98,90,200,19,7,197,8,324.6048056589934,325.5849624410039,325.5849624410039,325.6168165650015,t,0.3328208250022726,None,155103,001,2023-11-23_22h50.03.598,discounting ,2023.1.3,60.04232143385564,
87,85,188,19,8,198,7,325.95035045999975,326.9493024139956,326.9493024139956,326.9493024139956,l,0.3832948640047107,None,155103,001,2023-11-23_22h50.03.598,discounting ,2023.1.3,60.04232143385564,
49,60,89,19,9,199,4,327.35688216199924,328.350751075006,328.350751075006,328.36760073200276,l,0.1889784170052735,None,155103,001,2023-11-23_22h50.03.598,discounting ,2023.1.3,60.04232143385564,
87,85,188,20,0,200,7,328.57182086499233,329.5681571150053,329.5681571150053,329.5848655019945,l,0.48988970401114784,None,155103,001,2023-11-23_22h50.03.598,discounting ,2023.1.3,60.04232143385564,
15,35,13,20,1,201,1,330.08890372999304,331.08393069700105,331.08393069700105,331.10069541800476,l,0.287151939002797,None,155103,001,2023-11-23_22h50.03.598,discounting ,2023.1.3,60.04232143385564,
98,90,200,20,2,202,8,331.40644575499755,332.4012380310014,332.4012380310014,332.4182330659969,t,0.23861815400596242,None,155103,001,2023-11-23_22h50.03.598,discounting ,2023.1.3,60.04232143385564,
27,50,21,20,3,203,2,332.67236453600344,333.6679534279974,333.6679534279974,333.6849712289986,t,0.2676326220098417,None,155103,001,2023-11-23_22h50.03.598,discounting ,2023.1.3,60.04232143385564,
49,60,89,20,4,204,4,333.97106535699277,334.9508905440016,334.9508905440016,334.98448768799426,l,0.16683321799791884,None,155103,001,2023-11-23_22h50.03.598,discounting ,2023.1.3,60.04232143385564,
67,65,119,20,5,205,5,335.1437486289942,336.13484155599144,336.13484155599144,336.15141236600175,l,0.026346719008870423,None,155103,001,2023-11-23_22h50.03.598,discounting ,2023.1.3,60.04232143385564,
78,80,162,20,6,206,6,336.18886004100204,337.16937524800596,337.16937524800596,337.2014010089915,l,0.30032891500741243,None,155103,001,2023-11-23_22h50.03.598,discounting ,2023.1.3,60.04232143385564,
11,30,7,20,7,207,0,337.50178557800245,338.5012016190012,338.5012016190012,338.5012016190012,l,0.4506733760063071,None,155103,001,2023-11-23_22h50.03.598,discounting ,2023.1.3,60.04232143385564,
109,121,223,20,8,208,9,338.9747191839997,339.9685561859951,339.9685561859951,339.9849233339919,t,0.1026093620021129,None,155103,001,2023-11-23_22h50.03.598,discounting ,2023.1.3,60.04232143385564,
40,55,62,20,9,209,3,340.1081029189954,341.1019063239946,341.1019063239946,341.1187494439946,l,0.28187974100001156,None,155103,001,2023-11-23_22h50.03.598,discounting ,2023.1.3,60.04232143385564,
78,80,162,21,0,210,6,341.40722325599927,342.40212247999443,342.40212247999443,342.4188263499964,l,0.46736634500848595,None,155103,001,2023-11-23_22h50.03.598,discounting ,2023.1.3,60.04232143385564,
40,55,62,21,1,211,3,342.9071818939992,343.9013853399956,343.9013853399956,343.9182142339996,t,0.5619651500019245,None,155103,001,2023-11-23_22h50.03.598,discounting ,2023.1.3,60.04232143385564,
11,30,7,21,2,212,0,344.48999175499193,345.4855480980041,345.4855480980041,345.5015947649954,t,0.29946918300993275,None,155103,001,2023-11-23_22h50.03.598,discounting ,2023.1.3,60.04232143385564,
109,121,223,21,3,213,9,345.8086290079955,346.802034680004,346.802034680004,346.818550142998,l,0.08957212101086043,None,155103,001,2023-11-23_22h50.03.598,discounting ,2023.1.3,60.04232143385564,
67,65,119,21,4,214,5,346.92210506000265,347.9020695569925,347.9020695569925,347.935782378001,l,0.3155948619969422,None,155103,001,2023-11-23_22h50.03.598,discounting ,2023.1.3,60.04232143385564,
27,50,21,21,5,215,2,348.24081816700345,349.2358951549977,349.2358951549977,349.2518807830056,l,0.34265436499845237,None,155103,001,2023-11-23_22h50.03.598,discounting ,2023.1.3,60.04232143385564,
87,85,188,21,6,216,7,349.6059758259944,350.58558350999374,350.58558350999374,350.61924388799525,l,0.018522579019190744,None,155103,001,2023-11-23_22h50.03.598,discounting ,2023.1.3,60.04232143385564,
49,60,89,21,7,217,4,350.6407740650029,351.63612649300194,351.63612649300194,351.65262151999923,t,0.2812742359965341,None,155103,001,2023-11-23_22h50.03.598,discounting ,2023.1.3,60.04232143385564,
15,35,13,21,8,218,1,351.9409985050006,352.9363131230057,352.9363131230057,352.9526773779944,t,0.3478985300171189,None,155103,001,2023-11-23_22h50.03.598,discounting ,2023.1.3,60.04232143385564,
98,90,200,21,9,219,8,353.30916791300115,354.30224043599446,354.30224043599446,354.3189015319949,l,0.3198703829984879,None,155103,001,2023-11-23_22h50.03.598,discounting ,2023.1.3,60.04232143385564,
27,50,21,22,0,220,2,354.6574788979924,355.65205210300337,355.65205210300337,355.6691152279964,l,0.4188354130019434,None,155103,001,2023-11-23_22h50.03.598,discounting ,2023.1.3,60.04232143385564,
87,85,188,22,1,221,7,356.0950947730016,357.0864087490045,357.0864087490045,357.10255444899667,l,0.5562135380168911,None,155103,001,2023-11-23_22h50.03.598,discounting ,2023.1.3,60.04232143385564,
67,65,119,22,2,222,5,357.67356657399796,358.66902414399374,358.66902414399374,358.6861875390023,l,0.22466386599990074,None,155103,001,2023-11-23_22h50.03.598,discounting ,2023.1.3,60.04232143385564,
11,30,7,22,3,223,0,358.92374963300244,359.92004935500154,359.92004935500154,359.93635026499396,l,0.21087213000282645,None,155103,001,2023-11-23_22h50.03.598,discounting ,2023.1.3,60.04232143385564,
78,80,162,22,4,224,6,360.15717711500474,361.1532739749964,361.1532739749964,361.17035170199233,t,0.2688994240015745,None,155103,001,2023-11-23_22h50.03.598,discounting ,2023.1.3,60.04232143385564,
109,121,223,22,5,225,9,361.4584035000007,362.45340783199936,362.45340783199936,362.4700362089934,t,0.10138701600953937,None,155103,001,2023-11-23_22h50.03.598,discounting ,2023.1.3,60.04232143385564,
15,35,13,22,6,226,1,362.57867212699784,363.570793381994,363.570793381994,363.58739860600326,l,0.41369890100031625,None,155103,001,2023-11-23_22h50.03.598,discounting ,2023.1.3,60.04232143385564,
40,55,62,22,7,227,3,364.0082713839947,365.00289665600576,365.00289665600576,365.0198012250039,l,0.10140882201085333,None,155103,001,2023-11-23_22h50.03.598,discounting ,2023.1.3,60.04232143385564,
49,60,89,22,8,228,4,365.1369571870018,366.13673819199903,366.13673819199903,366.13673819199903,l,0.31473765401460696,None,155103,001,2023-11-23_22h50.03.598,discounting ,2023.1.3,60.04232143385564,
98,90,200,22,9,229,8,366.4756410550035,367.47136833600234,367.47136833600234,367.487707495995,t,0.674698613001965,None,155103,001,2023-11-23_22h50.03.598,discounting ,2023.1.3,60.04232143385564,
49,60,89,23,0,230,4,368.17543835499964,369.17070205799246,369.17070205799246,369.18701250100276,t,0.46674288500798866,None,155103,001,2023-11-23_22h50.03.598,discounting ,2023.1.3,60.04232143385564,
67,65,119,23,1,231,5,369.6878012209927,370.67024045600556,370.67024045600556,370.6871357560012,t,0.3025521130039124,None,155103,001,2023-11-23_22h50.03.598,discounting ,2023.1.3,60.04232143385564,
98,90,200,23,2,232,8,371.00720712599286,372.0034818179993,372.0034818179993,372.02080678299535,l,0.8173035160143627,None,155103,001,2023-11-23_22h50.03.598,discounting ,2023.1.3,60.04232143385564,
15,35,13,23,3,233,1,372.8430594810052,373.83830487499654,373.83830487499654,373.85459750199516,l,0.4267590580129763,None,155103,001,2023-11-23_22h50.03.598,discounting ,2023.1.3,60.04232143385564,
11,30,7,23,4,234,0,374.2922112910019,375.28733620200364,375.28733620200364,375.3045585969958,t,0.31992521400388796,None,155103,001,2023-11-23_22h50.03.598,discounting ,2023.1.3,60.04232143385564,
40,55,62,23,5,235,3,375.64269567700103,376.63760931100114,376.63760931100114,376.65404051399673,t,0.29380502001731656,None,155103,001,2023-11-23_22h50.03.598,discounting ,2023.1.3,60.04232143385564,
87,85,188,23,6,236,7,376.9593702239945,377.9541451940022,377.9541451940022,377.9708446799923,t,0.6343400640180334,None,155103,001,2023-11-23_22h50.03.598,discounting ,2023.1.3,60.04232143385564,
78,80,162,23,7,237,6,378.61078943300527,379.6039796200057,379.6039796200057,379.6206415350025,l,0.2753290460095741,None,155103,001,2023-11-23_22h50.03.598,discounting ,2023.1.3,60.04232143385564,
109,121,223,23,8,238,9,379.90884256499703,380.9041342249984,380.9041342249984,380.92077553999843,l,0.2898624780063983,None,155103,001,2023-11-23_22h50.03.598,discounting ,2023.1.3,60.04232143385564,
27,50,21,23,9,239,2,381.225375006994,382.20463032000407,382.20463032000407,382.23817833699286,t,0.334262510004919,None,155103,001,2023-11-23_22h50.03.598,discounting ,2023.1.3,60.04232143385564,
27,50,21,24,0,240,2,382.57109728700016,383.5715687369957,383.5715687369957,383.5715687369957,t,1.0939359160111053,None,155103,001,2023-11-23_22h50.03.598,discounting ,2023.1.3,60.04232143385564,
87,85,188,24,1,241,7,384.695626257002,385.68783428099414,385.68783428099414,385.7046122199972,l,0.5321471229981398,None,155103,001,2023-11-23_22h50.03.598,discounting ,2023.1.3,60.04232143385564,
78,80,162,24,2,242,6,386.24284069999703,387.2385466949927,387.2385466949927,387.2546212049929,l,0.3488624330057064,None,155103,001,2023-11-23_22h50.03.598,discounting ,2023.1.3,60.04232143385564,
15,35,13,24,3,243,1,387.6113953009917,388.60468710400164,388.60468710400164,388.6215021859971,l,0.26721064900630154,None,155103,001,2023-11-23_22h50.03.598,discounting ,2023.1.3,60.04232143385564,
49,60,89,24,4,244,4,388.89398134300427,389.88829164599883,389.88829164599883,389.9047007210029,l,0.2834348839969607,None,155103,001,2023-11-23_22h50.03.598,discounting ,2023.1.3,60.04232143385564,
109,121,223,24,5,245,9,390.19461738099926,391.1885865459917,391.1885865459917,391.2053112209978,l,0.30820960401615594,None,155103,001,2023-11-23_22h50.03.598,discounting ,2023.1.3,60.04232143385564,
98,90,200,24,6,246,8,391.5264203459956,392.50524510099785,392.50524510099785,392.53813395400357,l,0.2349067970062606,None,155103,001,2023-11-23_22h50.03.598,discounting ,2023.1.3,60.04232143385564,
40,55,62,24,7,247,3,392.76286738199997,393.75538020599924,393.75538020599924,393.772003495993,t,0.23039623501244932,None,155103,001,2023-11-23_22h50.03.598,discounting ,2023.1.3,60.04232143385564,
11,30,7,24,8,248,0,394.0112405359978,395.00521663400286,395.00521663400286,395.02200398199784,t,0.3021998910116963,None,155103,001,2023-11-23_22h50.03.598,discounting ,2023.1.3,60.04232143385564,
67,65,119,24,9,249,5,395.34356698299234,396.32235083699925,396.32235083699925,396.35555632499745,l,0.272893280009157,None,155103,001,2023-11-23_22h50.03.598,discounting ,2023.1.3,60.04232143385564,
109,121,223,25,0,250,9,396.62586812500376,397.6057402949955,397.6057402949955,397.6393528619956,l,0.27032457700988743,None,155103,001,2023-11-23_22h50.03.598,discounting ,2023.1.3,60.04232143385564,
78,80,162,25,1,251,6,397.9099954419944,398.9059134709969,398.9059134709969,398.9222859540023,l,0.44205506100843195,None,155103,001,2023-11-23_22h50.03.598,discounting ,2023.1.3,60.04232143385564,
49,60,89,25,2,252,4,399.3800968870055,400.3722679210041,400.3722679210041,400.38922147799167,l,0.04245007400459144,None,155103,001,2023-11-23_22h50.03.598,discounting ,2023.1.3,60.04232143385564,
11,30,7,25,3,253,0,400.4468046940019,401.4225136879977,401.4225136879977,401.45643408299657,t,0.20881366400863044,None,155103,001,2023-11-23_22h50.03.598,discounting ,2023.1.3,60.04232143385564,
27,50,21,25,4,254,2,401.66098075700575,402.6555921249965,402.6555921249965,402.67230194799777,t,0.18739927299611736,None,155103,001,2023-11-23_22h50.03.598,discounting ,2023.1.3,60.04232143385564,
15,35,13,25,5,255,1,402.8769318679988,403.8731765279954,403.8731765279954,403.88989559499896,l,0.06809038000938017,None,155103,001,2023-11-23_22h50.03.598,discounting ,2023.1.3,60.04232143385564,
67,65,119,25,6,256,5,403.97647662799864,404.9565849179926,404.9565849179926,404.9892205179931,l,0.15290671300317626,None,155103,001,2023-11-23_22h50.03.598,discounting ,2023.1.3,60.04232143385564,
98,90,200,25,7,257,8,405.14338181099447,406.1230826450046,406.1230826450046,406.1556817380042,t,0.021775171015178785,None,155103,001,2023-11-23_22h50.03.598,discounting ,2023.1.3,60.04232143385564,
87,85,188,25,8,258,7,406.1773385400011,407.15616785800376,407.15616785800376,407.1934886609961,t,0.010945644011371769,None,155103,001,2023-11-23_22h50.03.598,discounting ,2023.1.3,60.04232143385564,
40,55,62,25,9,259,3,407.1934886609961,408.1893381609989,408.1893381609989,408.20686028999626,l,0.44893119401240256,None,155103,001,2023-11-23_22h50.03.598,discounting ,2023.1.3,60.04232143385564,
98,90,200,26,0,260,8,408.66246360000514,409.6568101379962,409.6568101379962,409.67354657300166,t,0.09119903000828344,None,155103,001,2023-11-23_22h50.03.598,discounting ,2023.1.3,60.04232143385564,
11,30,7,26,1,261,0,409.77795976800553,410.756123611005,410.756123611005,410.7903616239928,t,0.0611985590076074,None,155103,001,2023-11-23_22h50.03.598,discounting ,2023.1.3,60.04232143385564,
15,35,13,26,2,262,1,410.84438546000456,411.8406984329922,411.8406984329922,411.85626388699166,l,0.08935346599901095,None,155103,001,2023-11-23_22h50.03.598,discounting ,2023.1.3,60.04232143385564,
78,80,162,26,3,263,6,411.96025040899985,412.93968073200085,412.93968073200085,412.9795881739992,l,0.01737350001349114,None,155103,001,2023-11-23_22h50.03.598,discounting ,2023.1.3,60.04232143385564,
49,60,89,26,4,264,4,412.9795881739992,413.9730246090039,413.9730246090039,413.99045707000187,l,0.02702701502130367,None,155103,001,2023-11-23_22h50.03.598,discounting ,2023.1.3,60.04232143385564,
27,50,21,26,5,265,2,414.027661539003,415.02468105900334,415.02468105900334,415.04098907999287,l,0.07426519700675271,None,155103,001,2023-11-23_22h50.03.598,discounting ,2023.1.3,60.04232143385564,
109,121,223,26,6,266,9,415.1288684339961,416.1231513669918,416.1231513669918,416.1399873180053,t,0.10259834601311013,None,155103,001,2023-11-23_22h50.03.598,discounting ,2023.1.3,60.04232143385564,
87,85,188,26,7,267,7,416.26140447000216,417.2570909920032,417.2570909920032,417.27375178199145,t,0.0895702400157461,None,155103,001,2023-11-23_22h50.03.598,discounting ,2023.1.3,60.04232143385564,
40,55,62,26,8,268,3,417.377262968992,418.35747126099886,418.35747126099886,418.39089060500555,t,0.23695630200381856,None,155103,001,2023-11-23_22h50.03.598,discounting ,2023.1.3,60.04232143385564,
67,65,119,26,9,269,5,418.62692365299154,419.623614969998,419.623614969998,419.6405577400001,t,0.08171247500285972,None,155103,001,2023-11-23_22h50.03.598,discounting ,2023.1.3,60.04232143385564,
78,80,162,27,0,270,6,419.72912948900193,420.7237065539957,420.7237065539957,420.7402217679919,l,0.006822376002673991,None,155103,001,2023-11-23_22h50.03.598,discounting ,2023.1.3,60.04232143385564,
109,121,223,27,1,271,9,420.76252986599866,421.75690320899594,421.75690320899594,421.77418508600385,t,0.16740203100198414,None,155103,001,2023-11-23_22h50.03.598,discounting ,2023.1.3,60.04232143385564,
49,60,89,27,2,272,4,421.9463390509918,422.940988397997,422.940988397997,422.95741369099414,l,0.7018216180003947,None,155103,001,2023-11-23_22h50.03.598,discounting ,2023.1.3,60.04232143385564,
67,65,119,27,3,273,5,423.68609370599734,424.67370237299474,424.67370237299474,424.69051784600015,l,0.8491659880091902,None,155103,001,2023-11-23_22h50.03.598,discounting ,2023.1.3,60.04232143385564,
40,55,62,27,4,274,3,425.5453018459957,426.54153048999433,426.54153048999433,426.5578955779929,t,0.690011165002943,None,155103,001,2023-11-23_22h50.03.598,discounting ,2023.1.3,60.04232143385564,
98,90,200,27,5,275,8,427.2627824329975,428.2407241460023,428.2407241460023,428.27433659200324,l,0.3602890310139628,None,155103,001,2023-11-23_22h50.03.598,discounting ,2023.1.3,60.04232143385564,
15,35,13,27,6,276,1,428.6280708559934,429.6242545559944,429.6242545559944,429.6417183510057,t,0.30043631501030177,None,155103,001,2023-11-23_22h50.03.598,discounting ,2023.1.3,60.04232143385564,
27,50,21,27,7,277,2,429.95072048799193,430.9413253389939,430.9413253389939,430.95805749199644,l,0.28197325200017076,None,155103,001,2023-11-23_22h50.03.598,discounting ,2023.1.3,60.04232143385564,
87,85,188,27,8,278,7,431.24739480800054,432.2413076369994,432.2413076369994,432.2575663979951,t,0.35712585800501984,None,155103,001,2023-11-23_22h50.03.598,discounting ,2023.1.3,60.04232143385564,
11,30,7,27,9,279,0,432.62922153199906,433.60812244200497,433.60812244200497,433.641681248002,l,0.2644914160046028,None,155103,001,2023-11-23_22h50.03.598,discounting ,2023.1.3,60.04232143385564,
98,90,200,28,0,280,8,433.89635727199493,434.8919241849944,434.8919241849944,434.90791820800223,t,0.2663072440191172,None,155103,001,2023-11-23_22h50.03.598,discounting ,2023.1.3,60.04232143385564,
15,35,13,28,1,281,1,435.18071773699194,436.1746232650039,436.1746232650039,436.191279562001,l,0.3677932210121071,None,155103,001,2023-11-23_22h50.03.598,discounting ,2023.1.3,60.04232143385564,
11,30,7,28,2,282,0,436.59137184900464,437.5761185409938,437.5761185409938,437.59230334199674,t,0.3406184839986963,None,155103,001,2023-11-23_22h50.03.598,discounting ,2023.1.3,60.04232143385564,
40,55,62,28,3,283,3,437.94538452499546,438.92518428999756,438.92518428999756,438.95845913399535,t,0.26936170100816526,None,155103,001,2023-11-23_22h50.03.598,discounting ,2023.1.3,60.04232143385564,
78,80,162,28,4,284,6,439.2269575859973,440.2251868989988,440.2251868989988,440.2423509289947,t,0.24339647901069839,None,155103,001,2023-11-23_22h50.03.598,discounting ,2023.1.3,60.04232143385564,
109,121,223,28,5,285,9,440.4968522370036,441.4914688249992,441.4914688249992,441.50846320099663,l,0.3098982869996689,None,155103,001,2023-11-23_22h50.03.598,discounting ,2023.1.3,60.04232143385564,
27,50,21,28,6,286,2,441.83045586499793,442.8258821990021,442.8258821990021,442.8421422410029,l,0.20692542901088018,None,155103,001,2023-11-23_22h50.03.598,discounting ,2023.1.3,60.04232143385564,
67,65,119,28,7,287,5,443.06312704899756,444.0428013789933,444.0428013789933,444.0758376360027,l,0.043297916010487825,None,155103,001,2023-11-23_22h50.03.598,discounting ,2023.1.3,60.04232143385564,
87,85,188,28,8,288,7,444.11350986799516,445.1092355360015,445.1092355360015,445.1255137690023,l,0.16716065800574142,None,155103,001,2023-11-23_22h50.03.598,discounting ,2023.1.3,60.04232143385564,
49,60,89,28,9,289,4,445.30867829600174,446.309465925995,446.309465925995,446.309465925995,l,0.18978747000801377,None,155103,001,2023-11-23_22h50.03.598,discounting ,2023.1.3,60.04232143385564,
67,65,119,29,0,290,5,446.5304372440005,447.52535253899987,447.52535253899987,447.54205403900414,t,0.10102815700520296,None,155103,001,2023-11-23_22h50.03.598,discounting ,2023.1.3,60.04232143385564,
27,50,21,29,1,291,2,447.6589978359989,448.65894885599846,448.65894885599846,448.65894885599846,t,0.05063402901578229,None,155103,001,2023-11-23_22h50.03.598,discounting ,2023.1.3,60.04232143385564,
40,55,62,29,2,292,3,448.7310429490026,449.70909853499325,449.70909853499325,449.7418796290003,t,0.5045942700089654,None,155103,001,2023-11-23_22h50.03.598,discounting ,2023.1.3,60.04232143385564,
49,60,89,29,3,293,4,450.24754146899795,451.2427413569967,451.2427413569967,451.259365549995,t,0.47155241401924286,None,155103,001,2023-11-23_22h50.03.598,discounting ,2023.1.3,60.04232143385564,
11,30,7,29,4,294,0,451.74717461499677,452.72659106500214,452.72659106500214,452.7592364269949,l,0.2714193529973272,None,155103,001,2023-11-23_22h50.03.598,discounting ,2023.1.3,60.04232143385564,
87,85,188,29,5,295,7,453.0294698479993,454.02566557200043,454.02566557200043,454.0426011380041,t,0.2847964980028337,None,155103,001,2023-11-23_22h50.03.598,discounting ,2023.1.3,60.04232143385564,
109,121,223,29,6,296,9,454.34733665599197,455.3267361949984,455.3267361949984,455.35965436699917,t,0.23458842500986066,None,155103,001,2023-11-23_22h50.03.598,discounting ,2023.1.3,60.04232143385564,
15,35,13,29,7,297,1,455.5931133690028,456.59344118999434,456.59344118999434,456.59344118999434,l,0.25512252100452315,None,155103,001,2023-11-23_22h50.03.598,discounting ,2023.1.3,60.04232143385564,
78,80,162,29,8,298,6,456.8822495829954,457.87607637299516,457.87607637299516,457.8926765549986,l,0.12419436901109293,None,155103,001,2023-11-23_22h50.03.598,discounting ,2023.1.3,60.04232143385564,
98,90,200,29,9,299,8,458.0305289099924,459.01013904499996,459.01013904499996,459.043367899998,l,0.25255164901318494,None,155103,001,2023-11-23_22h50.03.598,discounting ,2023.1.3,60.04232143385564,
11,30,7,30,0,300,0,459.2972360749991,460.2767164179968,460.2767164179968,460.3101119079947,l,0.27216710400534794,None,155103,001,2023-11-23_22h50.03.598,discounting ,2023.1.3,60.04232143385564,
40,55,62,30,1,301,3,460.58151213100064,461.5762865870056,461.5762865870056,461.59297580699786,l,0.1242586100124754,None,155103,001,2023-11-23_22h50.03.598,discounting ,2023.1.3,60.04232143385564,
78,80,162,30,2,302,6,461.73107788599737,462.72682093299227,462.72682093299227,462.74320784100564,l,0.23256770300213248,None,155103,001,2023-11-23_22h50.03.598,discounting ,2023.1.3,60.04232143385564,
109,121,223,30,3,303,9,462.98199381900486,463.9764635649917,463.9764635649917,463.99402269399434,t,0.2496286340028746,None,155103,001,2023-11-23_22h50.03.598,discounting ,2023.1.3,60.04232143385564,
67,65,119,30,4,304,5,464.24993439100217,465.24405550200026,465.24405550200026,465.2595741039986,l,0.007464748006896116,None,155103,001,2023-11-23_22h50.03.598,discounting ,2023.1.3,60.04232143385564,
87,85,188,30,5,305,7,465.2805548460019,466.2600221239991,466.2600221239991,466.2942531949957,t,0.1607452930038562,None,155103,001,2023-11-23_22h50.03.598,discounting ,2023.1.3,60.04232143385564,
15,35,13,30,6,306,1,466.4502015290054,467.44395502700354,467.44395502700354,467.4601796439965,l,0.3513542790169595,None,155103,001,2023-11-23_22h50.03.598,discounting ,2023.1.3,60.04232143385564,
49,60,89,30,7,307,4,467.831459463996,468.8273892120051,468.8273892120051,468.8440542890021,t,0.498696036011097,None,155103,001,2023-11-23_22h50.03.598,discounting ,2023.1.3,60.04232143385564,
27,50,21,30,8,308,2,469.35480543700396,470.34385731500515,470.34385731500515,470.36103154500597,t,0.4647780540108215,None,155103,001,2023-11-23_22h50.03.598,discounting ,2023.1.3,60.04232143385564,
98,90,200,30,9,309,8,470.8322147919971,471.8274482249981,471.8274482249981,471.8436545049917,t,0.3276969750149874,None,155103,001,2023-11-23_22h50.03.598,discounting ,2023.1.3,60.04232143385564,
40,55,62,31,0,310,3,472.1820229580044,473.17786623799475,473.17786623799475,473.1944672649988,t,0.2984387030155631,None,155103,001,2023-11-23_22h50.03.598,discounting ,2023.1.3,60.04232143385564,
87,85,188,31,1,311,7,473.49913280599867,474.49383549600316,474.49383549600316,474.510584617994,t,0.35897659401234705,None,155103,001,2023-11-23_22h50.03.598,discounting ,2023.1.3,60.04232143385564,
49,60,89,31,2,312,4,474.88162096099404,475.860532206003,475.860532206003,475.89432692299306,t,0.2397707630007062,None,155103,001,2023-11-23_22h50.03.598,discounting ,2023.1.3,60.04232143385564,
11,30,7,31,3,313,0,476.1317415759986,477.12787212799594,477.12787212799594,477.1443387079926,t,0.24801207600103226,None,155103,001,2023-11-23_22h50.03.598,discounting ,2023.1.3,60.04232143385564,
78,80,162,31,4,314,6,477.39900997099176,478.39427475299453,478.39427475299453,478.41107685399766,t,0.6932800890062936,None,155103,001,2023-11-23_22h50.03.598,discounting ,2023.1.3,60.04232143385564,
27,50,21,31,5,315,2,479.11502199599636,480.09591821300273,480.09591821300273,480.1281554629968,t,0.38449537599808536,None,155103,001,2023-11-23_22h50.03.598,discounting ,2023.1.3,60.04232143385564,
98,90,200,31,6,316,8,480.51602339600504,481.5111220969993,481.5111220969993,481.5280927569984,t,0.34956225800851826,None,155103,001,2023-11-23_22h50.03.598,discounting ,2023.1.3,60.04232143385564,
15,35,13,31,7,317,1,481.8888441129966,482.8784647209977,482.8784647209977,482.8950437519961,l,0.03133577201515436,None,155103,001,2023-11-23_22h50.03.598,discounting ,2023.1.3,60.04232143385564,
109,121,223,31,8,318,9,482.93384658200375,483.9278987549915,483.9278987549915,483.9454649590043,l,0.2489398410107242,None,155103,001,2023-11-23_22h50.03.598,discounting ,2023.1.3,60.04232143385564,
67,65,119,31,9,319,5,484.20124500099337,485.1947834449966,485.1947834449966,485.21136277700134,l,0.09873640000296291,None,155103,001,2023-11-23_22h50.03.598,discounting ,2023.1.3,60.04232143385564,
40,55,62,32,0,320,3,485.3169171939953,486.3114593270002,486.3114593270002,486.32836125699396,l,0.2819284280121792,None,155103,001,2023-11-23_22h50.03.598,discounting ,2023.1.3,60.04232143385564,
49,60,89,32,1,321,4,486.61680384300416,487.6121788599994,487.6121788599994,487.62784901099803,l,0.010452371003339067,None,155103,001,2023-11-23_22h50.03.598,discounting ,2023.1.3,60.04232143385564,
67,65,119,32,2,322,5,487.6497810169967,488.6290326699964,488.6290326699964,488.66162958300265,l,0.2342618930124445,None,155103,001,2023-11-23_22h50.03.598,discounting ,2023.1.3,60.04232143385564,
98,90,200,32,3,323,8,488.89462559200183,489.89642549600103,489.89642549600103,489.89642549600103,l,0.02148334900266491,None,155103,001,2023-11-23_22h50.03.598,discounting ,2023.1.3,60.04232143385564,
15,35,13,32,4,324,1,489.9491156699951,490.92893715899845,490.92893715899845,490.9622821929952,t,0.16855113800556865,None,155103,001,2023-11-23_22h50.03.598,discounting ,2023.1.3,60.04232143385564,
87,85,188,32,5,325,7,491.1330025819916,492.1288415080053,492.1288415080053,492.1450889270054,t,0.1992082670039963,None,155103,001,2023-11-23_22h50.03.598,discounting ,2023.1.3,60.04232143385564,
27,50,21,32,6,326,2,492.35112155400566,493.345223722994,493.345223722994,493.3624454929959,l,0.47865161501977127,None,155103,001,2023-11-23_22h50.03.598,discounting ,2023.1.3,60.04232143385564,
78,80,162,32,7,327,6,493.8502764339937,494.8456699179951,494.8456699179951,494.8626341640047,t,0.20282194000901654,None,155103,001,2023-11-23_22h50.03.598,discounting ,2023.1.3,60.04232143385564,
109,121,223,32,8,328,9,495.08429367300414,496.0795662449964,496.0795662449964,496.09593188599683,l,0.25712574101635255,None,155103,001,2023-11-23_22h50.03.598,discounting ,2023.1.3,60.04232143385564,
11,30,7,32,9,329,0,496.366531534004,497.362514501001,497.362514501001,497.3789404989948,t,0.2728652110090479,None,155103,001,2023-11-23_22h50.03.598,discounting ,2023.1.3,60.04232143385564,
78,80,162,33,0,330,6,497.66651465299947,498.66254809299426,498.66254809299426,498.67942725100147,l,0.11140434400294907,None,155103,001,2023-11-23_22h50.03.598,discounting ,2023.1.3,60.04232143385564,
49,60,89,33,1,331,4,498.8009370189975,499.79613264399813,499.79613264399813,499.8136976950045,t,0.2522267460153671,None,155103,001,2023-11-23_22h50.03.598,discounting ,2023.1.3,60.04232143385564,
87,85,188,33,2,332,7,500.08311340099317,501.0796404409921,501.0796404409921,501.0961890990002,l,0.23102761100744829,None,155103,001,2023-11-23_22h50.03.598,discounting ,2023.1.3,60.04232143385564,
15,35,13,33,3,333,1,501.33549963300175,502.3304341930052,502.3304341930052,502.34710423600336,l,0.07098780199885368,None,155103,001,2023-11-23_22h50.03.598,discounting ,2023.1.3,60.04232143385564,
109,121,223,33,4,334,9,502.43398834099935,503.4292957419966,503.4292957419966,503.4453571369959,l,0.27343301101063844,None,155103,001,2023-11-23_22h50.03.598,discounting ,2023.1.3,60.04232143385564,
40,55,62,33,5,335,3,503.7329277520039,504.71249970200006,504.71249970200006,504.746600479004,t,0.09469983101007529,None,155103,001,2023-11-23_22h50.03.598,discounting ,2023.1.3,60.04232143385564,
98,90,200,33,6,336,8,504.834363521004,505.8140575129946,505.8140575129946,505.8473554910015,t,0.1560459659958724,None,155103,001,2023-11-23_22h50.03.598,discounting ,2023.1.3,60.04232143385564,
27,50,21,33,7,337,2,506.0008569149941,506.9801826549956,506.9801826549956,507.0134886099986,t,0.09716736900736578,None,155103,001,2023-11-23_22h50.03.598,discounting ,2023.1.3,60.04232143385564,
11,30,7,33,8,338,0,507.1011412969965,508.0963798199955,508.0963798199955,508.1131762580044,t,0.3836427900096169,None,155103,001,2023-11-23_22h50.03.598,discounting ,2023.1.3,60.04232143385564,
67,65,119,33,9,339,5,508.5028257380036,509.49649545300053,509.49649545300053,509.5129337399994,l,0.23415640101302415,None,155103,001,2023-11-23_22h50.03.598,discounting ,2023.1.3,60.04232143385564,
78,80,162,34,0,340,6,509.75388709799154,510.7466486129997,510.7466486129997,510.7631237750029,t,0.1532093660061946,None,155103,001,2023-11-23_22h50.03.598,discounting ,2023.1.3,60.04232143385564,
11,30,7,34,1,341,0,510.9346055710048,511.913393180992,511.913393180992,511.9472966600006,t,0.4734704900183715,None,155103,001,2023-11-23_22h50.03.598,discounting ,2023.1.3,60.04232143385564,
98,90,200,34,2,342,8,512.4187124430027,513.4139395020029,513.4139395020029,513.4308380229922,l,0.45157841000764165,None,155103,001,2023-11-23_22h50.03.598,discounting ,2023.1.3,60.04232143385564,
27,50,21,34,3,343,2,513.9010509889922,514.8972950579919,514.8972950579919,514.9139929810044,t,0.13986972501152195,None,155103,001,2023-11-23_22h50.03.598,discounting ,2023.1.3,60.04232143385564,
49,60,89,34,4,344,4,515.0689196629974,516.0642193329986,516.0642193329986,516.0806026729988,t,0.2318531650089426,None,155103,001,2023-11-23_22h50.03.598,discounting ,2023.1.3,60.04232143385564,
67,65,119,34,5,345,5,516.3213436020014,517.3141711689968,517.3141711689968,517.3305607700022,l,0.3524332119995961,None,155103,001,2023-11-23_22h50.03.598,discounting ,2023.1.3,60.04232143385564,
40,55,62,34,6,346,3,517.7011262510059,518.6979549870011,518.6979549870011,518.7153787040006,t,0.26454238600854296,None,155103,001,2023-11-23_22h50.03.598,discounting ,2023.1.3,60.04232143385564,
87,85,188,34,7,347,7,518.985700196994,519.980967948999,519.980967948999,519.9979864039924,l,0.2661512140039122,None,155103,001,2023-11-23_22h50.03.598,discounting ,2023.1.3,60.04232143385564,
109,121,223,34,8,348,9,520.2696734490019,521.2639036290057,521.2639036290057,521.2809094999975,t,0.43323303799843416,None,155103,001,2023-11-23_22h50.03.598,discounting ,2023.1.3,60.04232143385564,
15,35,13,34,9,349,1,521.7239459489938,522.714202201998,522.714202201998,522.7304799699923,l,0.10401092300890014,None,155103,001,2023-11-23_22h50.03.598,discounting ,2023.1.3,60.04232143385564,
40,55,62,35,0,350,3,522.8519959940022,523.8479833349993,523.8479833349993,523.8640412069944,l,0.3811570140096592,None,155103,001,2023-11-23_22h50.03.598,discounting ,2023.1.3,60.04232143385564,
11,30,7,35,1,351,0,524.2541158639942,525.2474963370041,525.2474963370041,525.2643080120033,t,0.718271307006944,None,155103,001,2023-11-23_22h50.03.598,discounting ,2023.1.3,60.04232143385564,
49,60,89,35,2,352,4,526.0027100430016,526.9977282170003,526.9977282170003,527.0143164589972,l,0.16993923201516736,None,155103,001,2023-11-23_22h50.03.598,discounting ,2023.1.3,60.04232143385564,
78,80,162,35,3,353,6,527.2015566369955,528.1813956499973,528.1813956499973,528.2143941190006,t,0.6772336540161632,None,155103,001,2023-11-23_22h50.03.598,discounting ,2023.1.3,60.04232143385564,
27,50,21,35,4,354,2,528.8847052310011,529.8643871310051,529.8643871310051,529.8975566029985,l,0.465630835009506,None,155103,001,2023-11-23_22h50.03.598,discounting ,2023.1.3,60.04232143385564,
87,85,188,35,5,355,7,530.3537836659962,531.3481891260017,531.3481891260017,531.3644927830028,t,0.10049365300801583,None,155103,001,2023-11-23_22h50.03.598,discounting ,2023.1.3,60.04232143385564,
15,35,13,35,6,356,1,531.4814023380022,532.4815544830053,532.4815544830053,532.4815544830053,l,0.38582056801533327,None,155103,001,2023-11-23_22h50.03.598,discounting ,2023.1.3,60.04232143385564,
98,90,200,35,7,357,8,532.9031133579992,533.8981708630017,533.8981708630017,533.9152561509982,t,0.38577507600712124,None,155103,001,2023-11-23_22h50.03.598,discounting ,2023.1.3,60.04232143385564,
67,65,119,35,8,358,5,534.3188070769975,535.3151016390038,535.3151016390038,535.3377172759938,l,0.0006422040023608133,None,155103,001,2023-11-23_22h50.03.598,discounting ,2023.1.3,60.04232143385564,
109,121,223,35,9,359,9,535.3377172759938,536.332854755994,536.332854755994,536.3496966599923,t,0.2000847080053063,None,155103,001,2023-11-23_22h50.03.598,discounting ,2023.1.3,60.04232143385564,
11,30,7,36,0,360,0,536.5699156170012,537.548990736992,537.548990736992,537.5818567859969,l,0.2814129970065551,None,155103,001,2023-11-23_22h50.03.598,discounting ,2023.1.3,60.04232143385564,
15,35,13,36,1,361,1,537.8534761219926,538.8486532870011,538.8486532870011,538.8657463749987,t,0.1923400230007246,None,155103,001,2023-11-23_22h50.03.598,discounting ,2023.1.3,60.04232143385564,
27,50,21,36,2,362,2,539.069346712,540.0487102449988,540.0487102449988,540.0825986080017,l,0.43256022600689903,None,155103,001,2023-11-23_22h50.03.598,discounting ,2023.1.3,60.04232143385564,
49,60,89,36,3,363,4,540.5041552290058,541.4985884719936,541.4985884719936,541.515849880001,l,0.49459371699776966,None,155103,001,2023-11-23_22h50.03.598,discounting ,2023.1.3,60.04232143385564,
67,65,119,36,4,364,5,542.0197752189997,543.0165111480019,543.0165111480019,543.0328919780004,l,0.331016547002946,None,155103,001,2023-11-23_22h50.03.598,discounting ,2023.1.3,60.04232143385564,
87,85,188,36,5,365,7,543.3716647719993,544.3660019950039,544.3660019950039,544.3820382480044,l,1.0224300310073886,None,155103,001,2023-11-23_22h50.03.598,discounting ,2023.1.3,60.04232143385564,
109,121,223,36,6,366,9,545.4199267990043,546.3990970260056,546.3990970260056,546.4329573489958,t,0.35421790400869213,None,155103,001,2023-11-23_22h50.03.598,discounting ,2023.1.3,60.04232143385564,
40,55,62,36,7,367,3,546.786362511004,547.7825580359931,547.7825580359931,547.7997901649942,t,0.2783255590038607,None,155103,001,2023-11-23_22h50.03.598,discounting ,2023.1.3,60.04232143385564,
78,80,162,36,8,368,6,548.0876251879963,549.082933290003,549.082933290003,549.0996553129953,t,0.2745179250050569,None,155103,001,2023-11-23_22h50.03.598,discounting ,2023.1.3,60.04232143385564,
98,90,200,36,9,369,8,549.3869325660053,550.3833075639996,550.3833075639996,550.3994933729991,t,0.2588838510127971,None,155103,001,2023-11-23_22h50.03.598,discounting ,2023.1.3,60.04232143385564,
49,60,89,37,0,370,4,550.6703382389969,551.666188616,551.666188616,551.6826636040059,t,0.2170557240024209,None,155103,001,2023-11-23_22h50.03.598,discounting ,2023.1.3,60.04232143385564,
40,55,62,37,1,371,3,551.9074182229961,552.8992716689972,552.8992716689972,552.9166258159967,l,0.24352960301621351,None,155103,001,2023-11-23_22h50.03.598,discounting ,2023.1.3,60.04232143385564,
87,85,188,37,2,372,7,553.1699821289949,554.1669090359937,554.1669090359937,554.1830894360028,l,1.0599528360035038,None,155103,001,2023-11-23_22h50.03.598,discounting ,2023.1.3,60.04232143385564,
11,30,7,37,3,373,0,555.2536619080056,556.2498652990034,556.2498652990034,556.2661810489953,l,0.5014468139997916,None,155103,001,2023-11-23_22h50.03.598,discounting ,2023.1.3,60.04232143385564,
27,50,21,37,4,374,2,556.7882926019956,557.7839743020013,557.7839743020013,557.8000014379941,l,0.06447977101197466,None,155103,001,2023-11-23_22h50.03.598,discounting ,2023.1.3,60.04232143385564,
98,90,200,37,5,375,8,557.8737831089966,558.8670740099915,558.8670740099915,558.8834135189973,l,0.14278169300814625,None,155103,001,2023-11-23_22h50.03.598,discounting ,2023.1.3,60.04232143385564,
78,80,162,37,6,376,6,559.0366984069988,560.016477408004,560.016477408004,560.050223254002,t,0.20240184300928377,None,155103,001,2023-11-23_22h50.03.598,discounting ,2023.1.3,60.04232143385564,
67,65,119,37,7,377,5,560.2537653180043,561.2339905800036,561.2339905800036,561.2667664019973,t,0.2556734050012892,None,155103,001,2023-11-23_22h50.03.598,discounting ,2023.1.3,60.04232143385564,
15,35,13,37,8,378,1,561.5208502500027,562.5173469970032,562.5173469970032,562.5338989930024,t,0.2319591640116414,None,155103,001,2023-11-23_22h50.03.598,discounting ,2023.1.3,60.04232143385564,
109,121,223,37,9,379,9,562.7725094780035,563.7662946929922,563.7662946929922,563.7835620249971,t,0.15412388001277577,None,155103,001,2023-11-23_22h50.03.598,discounting ,2023.1.3,60.04232143385564,
98,90,200,38,0,380,8,563.9543267650006,564.9337086260057,564.9337086260057,564.9668918950047,t,0.3670439950074069,None,155103,001,2023-11-23_22h50.03.598,discounting ,2023.1.3,60.04232143385564,
40,55,62,38,1,381,3,565.323228883004,566.3177280730015,566.3177280730015,566.3339997909934,l,0.6937161030073185,None,155103,001,2023-11-23_22h50.03.598,discounting ,2023.1.3,60.04232143385564,
11,30,7,38,2,382,0,567.038811484992,568.0339270330005,568.0339270330005,568.0507787730021,l,0.48563936799473595,None,155103,001,2023-11-23_22h50.03.598,discounting ,2023.1.3,60.04232143385564,
27,50,21,38,3,383,2,568.5551472850057,569.5507521480031,569.5507521480031,569.5670949530031,l,0.5634706450073281,None,155103,001,2023-11-23_22h50.03.598,discounting ,2023.1.3,60.04232143385564,
87,85,188,38,4,384,7,570.1388986069942,571.1346347819926,571.1346347819926,571.1513224840019,t,0.06463634401734453,None,155103,001,2023-11-23_22h50.03.598,discounting ,2023.1.3,60.04232143385564,
15,35,13,38,5,385,1,571.2228128889983,572.2176473639993,572.2176473639993,572.2339589350013,t,0.31877228400844615,None,155103,001,2023-11-23_22h50.03.598,discounting ,2023.1.3,60.04232143385564,
109,121,223,38,6,386,9,572.5693287320028,573.5672381789918,573.5672381789918,573.5850141590054,l,0.30936159401608165,None,155103,001,2023-11-23_22h50.03.598,discounting ,2023.1.3,60.04232143385564,
49,60,89,38,7,387,4,573.9056654369924,574.9011909069959,574.9011909069959,574.9176337069948,t,0.34049536401289515,None,155103,001,2023-11-23_22h50.03.598,discounting ,2023.1.3,60.04232143385564,
78,80,162,38,8,388,6,575.2718693119969,576.2684472020046,576.2684472020046,576.284717536997,t,0.32572790601989254,None,155103,001,2023-11-23_22h50.03.598,discounting ,2023.1.3,60.04232143385564,
67,65,119,38,9,389,5,576.621475958993,577.6024322349986,577.6024322349986,577.6355099950015,l,0.40030622499762103,None,155103,001,2023-11-23_22h50.03.598,discounting ,2023.1.3,60.04232143385564,
78,80,162,39,0,390,6,578.0349182589998,579.0345645070047,579.0345645070047,579.0345645070047,l,0.7864777570066508,None,155103,001,2023-11-23_22h50.03.598,discounting ,2023.1.3,60.04232143385564,
49,60,89,39,1,391,4,579.8554278119991,580.8518626479927,580.8518626479927,580.868163592997,t,0.16053878400998656,None,155103,001,2023-11-23_22h50.03.598,discounting ,2023.1.3,60.04232143385564,
98,90,200,39,2,392,8,581.039073863998,582.0354845550028,582.0354845550028,582.0517229630059,l,1.1021868320094654,None,155103,001,2023-11-23_22h50.03.598,discounting ,2023.1.3,60.04232143385564,
11,30,7,39,3,393,0,583.1733540330024,584.1683768450021,584.1683768450021,584.1859734079917,l,0.3348049360065488,None,155103,001,2023-11-23_22h50.03.598,discounting ,2023.1.3,60.04232143385564,
40,55,62,39,4,394,3,584.5357700909954,585.535033498003,585.535033498003,585.535033498003,l,0.1928070830035722,None,155103,001,2023-11-23_22h50.03.598,discounting ,2023.1.3,60.04232143385564,
67,65,119,39,5,395,5,585.758083601002,586.7520232639945,586.7520232639945,586.7692860459938,t,0.9251369660050841,None,155103,001,2023-11-23_22h50.03.598,discounting ,2023.1.3,60.04232143385564,
27,50,21,39,6,396,2,587.7065455830016,588.7018583329918,588.7018583329918,588.7185189040028,t,0.11756182499811985,None,155103,001,2023-11-23_22h50.03.598,discounting ,2023.1.3,60.04232143385564,
87,85,188,39,7,397,7,588.8422333289927,589.8354511710058,589.8354511710058,589.8526690599974,t,0.05337761300324928,None,155103,001,2023-11-23_22h50.03.598,discounting ,2023.1.3,60.04232143385564,
109,121,223,39,8,398,9,589.9237460360018,590.9019869070034,590.9019869070034,590.9353995540005,t,0.13627740800438914,None,155103,001,2023-11-23_22h50.03.598,discounting ,2023.1.3,60.04232143385564,
15,35,13,39,9,399,1,591.0738058129937,592.0687767869968,592.0687767869968,592.0854724329984,t,0.10640260099899024,None,155103,001,2023-11-23_22h50.03.598,discounting ,2023.1.3,60.04232143385564,
