trials.thisRepN,trials.thisTrialN,trials.thisN,trials.thisIndex,fixation.started,fixation.stopped,grating.started,key_resp.started,grating.stopped,tilt,key_resp.keys,key_resp.corr,key_resp.rt,key_resp.duration,participant,session,date,expName,psychopyVersion,frameRate
0,0,0,0,13.46573734,14.46504239,14.46504239,14.46504239,14.76535943,0.5,up,1,2.008536918,None,247063,1,2023-09-11_11h58.19.188,Orientationdiscrimination,2023.1.3,59.32857578
1,0,1,0,16.50099305,17.51535204,17.49826463,17.49826463,17.79841989,0.5,down,0,0.51834692,None,247063,1,2023-09-11_11h58.19.188,Orientationdiscrimination,2023.1.3,59.32857578
2,0,2,0,18.05161115,19.06528075,19.04905837,19.04905837,19.34900329,0.5,up,1,0.341442517,None,247063,1,2023-09-11_11h58.19.188,Orientationdiscrimination,2023.1.3,59.32857578
3,0,3,0,19.41817553,20.43225651,20.41513715,20.41513715,20.71546487,0.5,up,1,0.544246833,None,247063,1,2023-09-11_11h58.19.188,Orientationdiscrimination,2023.1.3,59.32857578
4,0,4,0,20.98546922,21.99857017,21.98221011,21.98221011,,0.5,down,0,0.031370875,None,247063,1,2023-09-11_11h58.19.188,Orientationdiscrimination,2023.1.3,59.32857578
5,0,5,0,22.03513346,23.04951267,23.03213668,23.03213668,23.33163595,-2,up,0,0.793948793,None,247063,1,2023-09-11_11h58.19.188,Orientationdiscrimination,2023.1.3,59.32857578
6,0,6,0,23.85135026,24.86578087,24.8488157,24.8488157,,0.5,down,0,0.244191398,None,247063,1,2023-09-11_11h58.19.188,Orientationdiscrimination,2023.1.3,59.32857578
7,0,7,0,25.11781054,26.13240366,26.11605518,26.11605518,26.41601172,-4,down,1,0.324674946,None,247063,1,2023-09-11_11h58.19.188,Orientationdiscrimination,2023.1.3,59.32857578
8,0,8,0,26.46827541,27.48225082,27.46565027,27.46565027,,-4,up,0,0.122802346,None,247063,1,2023-09-11_11h58.19.188,Orientationdiscrimination,2023.1.3,59.32857578
9,0,9,0,27.61799678,28.63268163,28.61594019,28.61594019,28.91643286,0.5,down,0,0.311085244,None,247063,1,2023-09-11_11h58.19.188,Orientationdiscrimination,2023.1.3,59.32857578
10,0,10,0,28.95145857,29.96574997,29.94953709,29.94953709,,0.5,down,0,0.10147627,None,247063,1,2023-09-11_11h58.19.188,Orientationdiscrimination,2023.1.3,59.32857578
11,0,11,0,30.0858923,31.09948674,31.08293344,31.08293344,,-4,down,1,0.194287543,None,247063,1,2023-09-11_11h58.19.188,Orientationdiscrimination,2023.1.3,59.32857578
12,0,12,0,31.30282669,32.31597747,32.29982817,32.29982817,,-3,down,1,0.089258648,None,247063,1,2023-09-11_11h58.19.188,Orientationdiscrimination,2023.1.3,59.32857578
13,0,13,0,32.41834091,33.43277488,33.4159026,33.4159026,,0.5,down,0,0.055004857,None,247063,1,2023-09-11_11h58.19.188,Orientationdiscrimination,2023.1.3,59.32857578
14,0,14,0,33.50212686,34.51646191,34.49961471,34.49961471,,-2,down,1,0.138662797,None,247063,1,2023-09-11_11h58.19.188,Orientationdiscrimination,2023.1.3,59.32857578
15,0,15,0,34.6684383,35.68379648,35.66673799,35.66673799,35.96652868,-3,up,0,0.549673252,None,247063,1,2023-09-11_11h58.19.188,Orientationdiscrimination,2023.1.3,59.32857578
16,0,16,0,36.23668197,37.24990807,37.23288629,37.23288629,37.53274558,-2,down,1,0.415861012,None,247063,1,2023-09-11_11h58.19.188,Orientationdiscrimination,2023.1.3,59.32857578
17,0,17,0,37.67035951,38.68350302,38.66699736,38.66699736,,-2,down,1,0.053804265,None,247063,1,2023-09-11_11h58.19.188,Orientationdiscrimination,2023.1.3,59.32857578
18,0,18,0,38.75211318,39.76623962,39.75033219,39.75033219,,-3,down,1,0.003320864,None,247063,1,2023-09-11_11h58.19.188,Orientationdiscrimination,2023.1.3,59.32857578
19,0,19,0,39.7855592,40.79942332,40.78376705,40.78376705,41.08437236,-3,up,0,0.500146455,None,247063,1,2023-09-11_11h58.19.188,Orientationdiscrimination,2023.1.3,59.32857578
20,0,20,0,41.30362934,42.31686713,42.3005664,42.3005664,42.60027701,0.5,down,0,0.502471318,None,247063,1,2023-09-11_11h58.19.188,Orientationdiscrimination,2023.1.3,59.32857578
21,0,21,0,42.83639229,43.85053165,43.83344877,43.83344877,44.13376198,-4,up,0,0.571278748,None,247063,1,2023-09-11_11h58.19.188,Orientationdiscrimination,2023.1.3,59.32857578
22,0,22,0,44.43650357,45.45023325,45.43394569,45.43394569,45.73331207,-4,down,1,0.465668309,None,247063,1,2023-09-11_11h58.19.188,Orientationdiscrimination,2023.1.3,59.32857578
23,0,23,0,45.9207137,46.93373958,46.91882757,46.91882757,47.23443008,0.5,down,0,0.446633906,None,247063,1,2023-09-11_11h58.19.188,Orientationdiscrimination,2023.1.3,59.32857578
24,0,24,0,47.3875011,48.40051526,48.38423586,48.38423586,48.68448171,0.5,down,0,0.35659702,None,247063,1,2023-09-11_11h58.19.188,Orientationdiscrimination,2023.1.3,59.32857578
25,0,25,0,48.76871246,49.78461956,49.76757463,49.76757463,50.06722328,-2,up,0,0.390318482,None,247063,1,2023-09-11_11h58.19.188,Orientationdiscrimination,2023.1.3,59.32857578
26,0,26,0,50.18680562,51.20081464,51.18389202,51.18389202,51.48385932,0.5,up,1,0.651017144,None,247063,1,2023-09-11_11h58.19.188,Orientationdiscrimination,2023.1.3,59.32857578
27,0,27,0,51.86954846,52.88464618,52.86750018,52.86750018,53.16751032,-2,down,1,0.732176903,None,247063,1,2023-09-11_11h58.19.188,Orientationdiscrimination,2023.1.3,59.32857578
28,0,28,0,53.62180347,54.63443368,54.61783467,54.61783467,54.91906179,-4,up,0,0.701061903,None,247063,1,2023-09-11_11h58.19.188,Orientationdiscrimination,2023.1.3,59.32857578
29,0,29,0,55.35387029,56.36780891,56.35095997,56.35095997,56.65134478,0.5,down,0,0.72470948,None,247063,1,2023-09-11_11h58.19.188,Orientationdiscrimination,2023.1.3,59.32857578
30,0,30,0,57.10352332,58.11862345,58.10128559,58.10128559,,-3,down,1,0.250623463,None,247063,1,2023-09-11_11h58.19.188,Orientationdiscrimination,2023.1.3,59.32857578
31,0,31,0,58.37298131,59.38426727,59.3684727,59.3684727,,-3,up,0,0.192424045,None,247063,1,2023-09-11_11h58.19.188,Orientationdiscrimination,2023.1.3,59.32857578
32,0,32,0,59.58767511,60.60146725,60.58479246,60.58479246,,-2,down,1,0.240563474,None,247063,1,2023-09-11_11h58.19.188,Orientationdiscrimination,2023.1.3,59.32857578
33,0,33,0,60.85569967,61.86734217,61.85226807,61.85226807,,0.5,down,0,0.157927183,None,247063,1,2023-09-11_11h58.19.188,Orientationdiscrimination,2023.1.3,59.32857578
34,0,34,0,62.04153823,63.05142535,63.03515886,63.03515886,63.33475383,-2,up,0,0.293091964,None,247063,1,2023-09-11_11h58.19.188,Orientationdiscrimination,2023.1.3,59.32857578
35,0,35,0,63.35402917,64.3676993,64.35223774,64.35223774,,0.5,down,0,0.254891089,None,247063,1,2023-09-11_11h58.19.188,Orientationdiscrimination,2023.1.3,59.32857578
36,0,36,0,64.63829548,65.65175394,65.63497374,65.63497374,,-2,up,0,0.177299572,None,247063,1,2023-09-11_11h58.19.188,Orientationdiscrimination,2023.1.3,59.32857578
37,0,37,0,65.83834131,66.85236973,66.83499997,66.83499997,,-2,down,1,0.192610359,None,247063,1,2023-09-11_11h58.19.188,Orientationdiscrimination,2023.1.3,59.32857578
38,0,38,0,67.05401009,68.06858484,68.05129466,68.05129466,,0.5,down,0,0.215557999,None,247063,1,2023-09-11_11h58.19.188,Orientationdiscrimination,2023.1.3,59.32857578
39,0,39,0,68.28960054,69.30109266,69.28576674,69.28576674,,-4,down,1,0.11945631,None,247063,1,2023-09-11_11h58.19.188,Orientationdiscrimination,2023.1.3,59.32857578
40,0,40,0,69.43666268,70.45215465,70.43545778,70.43545778,,-5,down,1,0.12591524,None,247063,1,2023-09-11_11h58.19.188,Orientationdiscrimination,2023.1.3,59.32857578
41,0,41,0,70.58760094,71.60206671,71.58544514,71.58544514,,0.5,up,1,0.117030401,None,247063,1,2023-09-11_11h58.19.188,Orientationdiscrimination,2023.1.3,59.32857578
42,0,42,0,71.72289585,72.73578736,72.71902124,72.71902124,,0.5,up,1,0.0765586,None,247063,1,2023-09-11_11h58.19.188,Orientationdiscrimination,2023.1.3,59.32857578
43,0,43,0,72.8211136,73.83558581,73.81917165,73.81917165,,0.5,up,1,0.160779962,None,247063,1,2023-09-11_11h58.19.188,Orientationdiscrimination,2023.1.3,59.32857578
44,0,44,0,74.00455676,75.01956047,75.00183592,75.00183592,,0.5,down,0,0.160658786,None,247063,1,2023-09-11_11h58.19.188,Orientationdiscrimination,2023.1.3,59.32857578
45,0,45,0,75.18882379,76.20247875,76.18592448,76.18592448,,0.5,down,0,0.053657203,None,247063,1,2023-09-11_11h58.19.188,Orientationdiscrimination,2023.1.3,59.32857578
46,0,46,0,76.27322803,77.28556496,77.26915978,77.26915978,,0.5,down,0,0.168696695,None,247063,1,2023-09-11_11h58.19.188,Orientationdiscrimination,2023.1.3,59.32857578
47,0,47,0,77.4720495,78.48587962,78.46972424,78.46972424,,-4,up,0,0.207576719,None,247063,1,2023-09-11_11h58.19.188,Orientationdiscrimination,2023.1.3,59.32857578
48,0,48,0,78.70576,79.71962653,79.70319779,79.70319779,,-2,up,0,0.173842605,None,247063,1,2023-09-11_11h58.19.188,Orientationdiscrimination,2023.1.3,59.32857578
49,0,49,0,79.90502329,80.91975487,80.90277464,80.90277464,,-5,down,1,0.210356989,None,247063,1,2023-09-11_11h58.19.188,Orientationdiscrimination,2023.1.3,59.32857578
50,0,50,0,81.13957696,82.15266742,82.13633569,82.13633569,,0.5,down,0,0.104730379,None,247063,1,2023-09-11_11h58.19.188,Orientationdiscrimination,2023.1.3,59.32857578
51,0,51,0,82.27217108,83.28657408,83.26899037,83.26899037,,-3,down,1,0.040746065,None,247063,1,2023-09-11_11h58.19.188,Orientationdiscrimination,2023.1.3,59.32857578
52,0,52,0,83.3384387,84.35307747,84.33642055,84.33642055,,0.5,up,1,0.16609653,None,247063,1,2023-09-11_11h58.19.188,Orientationdiscrimination,2023.1.3,59.32857578
53,0,53,0,84.52395584,85.53662281,85.51965959,85.51965959,,-4,up,0,0.143905089,None,247063,1,2023-09-11_11h58.19.188,Orientationdiscrimination,2023.1.3,59.32857578
54,0,54,0,85.68978641,86.70299488,86.68617749,86.68617749,,-2,down,1,0.03939416,None,247063,1,2023-09-11_11h58.19.188,Orientationdiscrimination,2023.1.3,59.32857578
55,0,55,0,86.75650393,87.7696512,87.75361041,87.75361041,,0.5,down,0,0.050113719,None,247063,1,2023-09-11_11h58.19.188,Orientationdiscrimination,2023.1.3,59.32857578
56,0,56,0,87.83869245,88.85322215,88.83663617,88.83663617,,0.5,up,1,0.177972827,None,247063,1,2023-09-11_11h58.19.188,Orientationdiscrimination,2023.1.3,59.32857578
57,0,57,0,89.03981986,90.05320293,90.0367441,90.0367441,,-4,up,0,0.101780476,None,247063,1,2023-09-11_11h58.19.188,Orientationdiscrimination,2023.1.3,59.32857578
58,0,58,0,90.16311704,91.1701119,91.15325446,91.15325446,,-5,down,1,0.101375264,None,247063,1,2023-09-11_11h58.19.188,Orientationdiscrimination,2023.1.3,59.32857578
59,0,59,0,91.28926563,92.30342366,92.28695577,92.28695577,,-4,down,1,0.235958136,None,247063,1,2023-09-11_11h58.19.188,Orientationdiscrimination,2023.1.3,59.32857578
60,0,60,0,92.55634567,93.57038477,93.55352888,93.55352888,,0.5,up,1,0.119209053,None,247063,1,2023-09-11_11h58.19.188,Orientationdiscrimination,2023.1.3,59.32857578
61,0,61,0,93.70755922,94.72039976,94.70405714,94.70405714,95.00394956,-5,down,1,0.860825725,None,247063,1,2023-09-11_11h58.19.188,Orientationdiscrimination,2023.1.3,59.32857578
62,0,62,0,95.59000055,96.60364184,96.58685958,96.58685958,96.88700515,0.5,up,1,0.29740375,None,247063,1,2023-09-11_11h58.19.188,Orientationdiscrimination,2023.1.3,59.32857578
63,0,63,0,96.90696576,97.92066086,97.90382958,97.90382958,98.20334736,0.5,down,0,0.564997233,None,247063,1,2023-09-11_11h58.19.188,Orientationdiscrimination,2023.1.3,59.32857578
64,0,64,0,98.48993812,99.5038412,99.48754802,99.48754802,99.78727458,0.5,up,1,0.314820409,None,247063,1,2023-09-11_11h58.19.188,Orientationdiscrimination,2023.1.3,59.32857578
65,0,65,0,99.82347212,100.8377185,100.820893,100.820893,,-2,down,1,0.193345661,None,247063,1,2023-09-11_11h58.19.188,Orientationdiscrimination,2023.1.3,59.32857578
66,0,66,0,101.0409165,102.0543543,102.0376489,102.0376489,,-4,up,0,0.221612624,None,247063,1,2023-09-11_11h58.19.188,Orientationdiscrimination,2023.1.3,59.32857578
67,0,67,0,102.2903231,103.3043643,103.2874524,103.2874524,103.5873664,0.5,up,1,0.709764993,None,247063,1,2023-09-11_11h58.19.188,Orientationdiscrimination,2023.1.3,59.32857578
68,0,68,0,104.0238074,105.037632,105.0210329,105.0210329,,0.5,down,0,0.171160651,None,247063,1,2023-09-11_11h58.19.188,Orientationdiscrimination,2023.1.3,59.32857578
69,0,69,0,105.2226641,106.2379748,106.221097,106.221097,106.5215597,0.5,down,0,0.857874301,None,247063,1,2023-09-11_11h58.19.188,Orientationdiscrimination,2023.1.3,59.32857578
70,0,70,0,107.1064067,108.1215717,108.1043721,108.1043721,108.4045847,-2,down,1,0.370919332,None,247063,1,2023-09-11_11h58.19.188,Orientationdiscrimination,2023.1.3,59.32857578
71,0,71,0,108.5080336,109.5208763,109.5040273,109.5040273,,0.5,down,0,0.08471162,None,247063,1,2023-09-11_11h58.19.188,Orientationdiscrimination,2023.1.3,59.32857578
72,0,72,0,109.6207582,110.6216592,110.6216592,110.6216592,,0.5,up,1,0.103069099,None,247063,1,2023-09-11_11h58.19.188,Orientationdiscrimination,2023.1.3,59.32857578
73,0,73,0,110.7578097,111.7721205,111.754965,111.754965,112.0553305,-5,up,0,0.376159125,None,247063,1,2023-09-11_11h58.19.188,Orientationdiscrimination,2023.1.3,59.32857578
74,0,74,0,112.1573854,113.1722354,113.1552292,113.1552292,113.4546822,0.5,up,1,0.410133818,None,247063,1,2023-09-11_11h58.19.188,Orientationdiscrimination,2023.1.3,59.32857578
75,0,75,0,113.5902882,114.5881933,114.5881933,114.5881933,,-2,up,0,0.235537623,None,247063,1,2023-09-11_11h58.19.188,Orientationdiscrimination,2023.1.3,59.32857578
76,0,76,0,114.8550275,115.8555449,115.8555449,115.8555449,116.1545928,-4,up,0,0.402223973,None,247063,1,2023-09-11_11h58.19.188,Orientationdiscrimination,2023.1.3,59.32857578
77,0,77,0,116.2914945,117.3048718,117.28883,117.28883,,-2,down,1,0.009422217,None,247063,1,2023-09-11_11h58.19.188,Orientationdiscrimination,2023.1.3,59.32857578
78,0,78,0,117.3239927,118.3386607,118.3225973,118.3225973,,-4,down,1,0.050446229,None,247063,1,2023-09-11_11h58.19.188,Orientationdiscrimination,2023.1.3,59.32857578
79,0,79,0,118.408521,119.4221389,119.4051221,119.4051221,119.705535,0.5,down,0,0.318061649,None,247063,1,2023-09-11_11h58.19.188,Orientationdiscrimination,2023.1.3,59.32857578
80,0,80,0,119.7563975,120.772334,120.7557521,120.7557521,121.055301,-3,down,1,0.321629093,None,247063,1,2023-09-11_11h58.19.188,Orientationdiscrimination,2023.1.3,59.32857578
81,0,81,0,121.1080932,122.1224407,122.1054719,122.1054719,122.4059085,0.5,down,0,0.37141768,None,247063,1,2023-09-11_11h58.19.188,Orientationdiscrimination,2023.1.3,59.32857578
82,0,82,0,122.5080652,123.5225402,123.5063577,123.5063577,123.8222837,0.5,down,0,0.308510936,None,247063,1,2023-09-11_11h58.19.188,Orientationdiscrimination,2023.1.3,59.32857578
83,0,83,0,123.8419325,124.8555365,124.8392308,124.8392308,125.1391874,-5,up,0,0.326602308,None,247063,1,2023-09-11_11h58.19.188,Orientationdiscrimination,2023.1.3,59.32857578
84,0,84,0,125.1931448,126.2060616,126.1890818,126.1890818,126.4888136,-4,up,0,0.29085632,None,247063,1,2023-09-11_11h58.19.188,Orientationdiscrimination,2023.1.3,59.32857578
85,0,85,0,126.5073738,127.5219326,127.5060492,127.5060492,,0.5,up,1,0.253662254,None,247063,1,2023-09-11_11h58.19.188,Orientationdiscrimination,2023.1.3,59.32857578
86,0,86,0,127.793307,128.8060543,128.7887306,128.7887306,,0.5,up,1,0.042880607,None,247063,1,2023-09-11_11h58.19.188,Orientationdiscrimination,2023.1.3,59.32857578
87,0,87,0,128.8589402,129.8731609,129.8564212,129.8564212,,-3,up,0,0.034471705,None,247063,1,2023-09-11_11h58.19.188,Orientationdiscrimination,2023.1.3,59.32857578
88,0,88,0,129.9308347,130.939784,130.9231502,130.9231502,131.2228285,-3,up,0,0.521571865,None,247063,1,2023-09-11_11h58.19.188,Orientationdiscrimination,2023.1.3,59.32857578
89,0,89,0,131.4761226,132.4897245,132.4732897,132.4732897,132.7731186,0.5,up,1,0.472546741,None,247063,1,2023-09-11_11h58.19.188,Orientationdiscrimination,2023.1.3,59.32857578
90,0,90,0,132.9762362,133.989727,133.9731245,133.9731245,134.2731277,-4,up,0,0.439856647,None,247063,1,2023-09-11_11h58.19.188,Orientationdiscrimination,2023.1.3,59.32857578
91,0,91,0,134.442864,135.4573525,135.4397744,135.4397744,135.740107,0.5,up,1,0.472502893,None,247063,1,2023-09-11_11h58.19.188,Orientationdiscrimination,2023.1.3,59.32857578
92,0,92,0,135.9429525,136.9567068,136.9402677,136.9402677,,-5,down,1,0.224893861,None,247063,1,2023-09-11_11h58.19.188,Orientationdiscrimination,2023.1.3,59.32857578
93,0,93,0,137.1918075,138.2069347,138.1903576,138.1903576,138.4898953,-2,down,1,0.292278465,None,247063,1,2023-09-11_11h58.19.188,Orientationdiscrimination,2023.1.3,59.32857578
94,0,94,0,138.5094726,139.5240051,139.5066698,139.5066698,,-3,up,0,0.01725908,None,247063,1,2023-09-11_11h58.19.188,Orientationdiscrimination,2023.1.3,59.32857578
95,0,95,0,139.5447937,140.557207,140.5403757,140.5403757,140.8398866,-4,down,1,0.584740906,None,247063,1,2023-09-11_11h58.19.188,Orientationdiscrimination,2023.1.3,59.32857578
96,0,96,0,141.1586154,142.1733543,142.1570051,142.1570051,142.4571427,-2,up,0,0.541553191,None,247063,1,2023-09-11_11h58.19.188,Orientationdiscrimination,2023.1.3,59.32857578
97,0,97,0,142.7261317,143.7406229,143.7242572,143.7242572,144.0237393,-3,up,0,0.593684827,None,247063,1,2023-09-11_11h58.19.188,Orientationdiscrimination,2023.1.3,59.32857578
98,0,98,0,144.3444814,145.3576805,145.3402956,145.3402956,145.6399346,0.5,up,1,0.290793805,None,247063,1,2023-09-11_11h58.19.188,Orientationdiscrimination,2023.1.3,59.32857578
99,0,99,0,145.6595087,146.6741445,146.6575093,146.6575093,146.9576278,-2,up,0,0.327975464,None,247063,1,2023-09-11_11h58.19.188,Orientationdiscrimination,2023.1.3,59.32857578
100,0,100,0,147.0115649,148.0242364,148.0074313,148.0074313,,0.5,down,0,0.203457192,None,247063,1,2023-09-11_11h58.19.188,Orientationdiscrimination,2023.1.3,59.32857578
101,0,101,0,148.2468675,149.2574274,149.2406704,149.2406704,,0.5,down,0,0.191006102,None,247063,1,2023-09-11_11h58.19.188,Orientationdiscrimination,2023.1.3,59.32857578
102,0,102,0,149.4610106,150.474238,150.4576803,150.4576803,,-2,down,1,0.185801286,None,247063,1,2023-09-11_11h58.19.188,Orientationdiscrimination,2023.1.3,59.32857578
103,0,103,0,150.6765089,151.6910077,151.6742488,151.6742488,151.9745061,0.5,up,1,0.372012088,None,247063,1,2023-09-11_11h58.19.188,Orientationdiscrimination,2023.1.3,59.32857578
104,0,104,0,152.0757388,153.0910771,153.0741641,153.0741641,,0.5,down,0,0.201473791,None,247063,1,2023-09-11_11h58.19.188,Orientationdiscrimination,2023.1.3,59.32857578
105,0,105,0,153.3105731,154.3244019,154.3072318,154.3072318,,0.5,down,0,0.103103541,None,247063,1,2023-09-11_11h58.19.188,Orientationdiscrimination,2023.1.3,59.32857578
106,0,106,0,154.4446582,155.4578742,155.4415052,155.4415052,,0.5,down,0,0.077670894,None,247063,1,2023-09-11_11h58.19.188,Orientationdiscrimination,2023.1.3,59.32857578
107,0,107,0,155.5438245,156.5580718,156.5407241,156.5407241,,-2,down,1,0.161442085,None,247063,1,2023-09-11_11h58.19.188,Orientationdiscrimination,2023.1.3,59.32857578
108,0,108,0,156.7273314,157.7415122,157.7248326,157.7248326,,-2,up,0,0.181989255,None,247063,1,2023-09-11_11h58.19.188,Orientationdiscrimination,2023.1.3,59.32857578
109,0,109,0,157.9286981,158.942251,158.9242829,158.9242829,,-5,up,0,0.181834833,None,247063,1,2023-09-11_11h58.19.188,Orientationdiscrimination,2023.1.3,59.32857578
110,0,110,0,159.1278907,160.1413583,160.1251063,160.1251063,,0.5,down,0,0.058885209,None,247063,1,2023-09-11_11h58.19.188,Orientationdiscrimination,2023.1.3,59.32857578
111,0,111,0,160.2111478,161.2253114,161.2086422,161.2086422,,0.5,down,0,0.016849354,None,247063,1,2023-09-11_11h58.19.188,Orientationdiscrimination,2023.1.3,59.32857578
112,0,112,0,161.2451777,162.2587122,162.242178,162.242178,,-3,up,0,0.126951605,None,247063,1,2023-09-11_11h58.19.188,Orientationdiscrimination,2023.1.3,59.32857578
113,0,113,0,162.3945797,163.4080872,163.3936274,163.3936274,163.7085098,-5,up,0,0.30401072,None,247063,1,2023-09-11_11h58.19.188,Orientationdiscrimination,2023.1.3,59.32857578
114,0,114,0,163.7278622,164.7414459,164.7254127,164.7254127,,-3,up,0,0.0073877,None,247063,1,2023-09-11_11h58.19.188,Orientationdiscrimination,2023.1.3,59.32857578
115,0,115,0,164.7601585,165.775217,165.758963,165.758963,,0.5,up,1,0.074653397,None,247063,1,2023-09-11_11h58.19.188,Orientationdiscrimination,2023.1.3,59.32857578
116,0,116,0,165.8611817,166.8756156,166.8589271,166.8589271,,0.5,up,1,0.10471791,None,247063,1,2023-09-11_11h58.19.188,Orientationdiscrimination,2023.1.3,59.32857578
117,0,117,0,166.9946729,168.0089134,167.99259,167.99259,,0.5,down,0,0.252975472,None,247063,1,2023-09-11_11h58.19.188,Orientationdiscrimination,2023.1.3,59.32857578
118,0,118,0,168.2789553,169.2922546,169.2758614,169.2758614,,-2,down,1,0.165122975,None,247063,1,2023-09-11_11h58.19.188,Orientationdiscrimination,2023.1.3,59.32857578
119,0,119,0,169.4625895,170.4756593,170.4589121,170.4589121,,-5,down,1,0.067149523,None,247063,1,2023-09-11_11h58.19.188,Orientationdiscrimination,2023.1.3,59.32857578
120,0,120,0,170.5468333,171.5589927,171.54219,171.54219,,-4,up,0,0.08222123,None,247063,1,2023-09-11_11h58.19.188,Orientationdiscrimination,2023.1.3,59.32857578
121,0,121,0,171.6465245,172.6588774,172.6425948,172.6425948,,0.5,up,1,0.101744215,None,247063,1,2023-09-11_11h58.19.188,Orientationdiscrimination,2023.1.3,59.32857578
122,0,122,0,172.7786599,173.7923676,173.7757249,173.7757249,,-5,down,1,0.10012118,None,247063,1,2023-09-11_11h58.19.188,Orientationdiscrimination,2023.1.3,59.32857578
123,0,123,0,173.8959028,174.9091663,174.8926181,174.8926181,,-4,up,0,0.182344575,None,247063,1,2023-09-11_11h58.19.188,Orientationdiscrimination,2023.1.3,59.32857578
124,0,124,0,175.097047,176.1096106,176.0929779,176.0929779,,0.5,down,0,0.034592078,None,247063,1,2023-09-11_11h58.19.188,Orientationdiscrimination,2023.1.3,59.32857578
125,0,125,0,176.1628009,177.1759934,177.1595831,177.1595831,177.4598096,-5,up,0,0.285192536,None,247063,1,2023-09-11_11h58.19.188,Orientationdiscrimination,2023.1.3,59.32857578
126,0,126,0,177.4790533,178.4924981,178.4757197,178.4757197,178.7765822,-2,down,1,0.555026836,None,247063,1,2023-09-11_11h58.19.188,Orientationdiscrimination,2023.1.3,59.32857578
127,0,127,0,179.0619865,180.0761791,180.0592903,180.0592903,180.3597978,0.5,down,0,0.584921826,None,247063,1,2023-09-11_11h58.19.188,Orientationdiscrimination,2023.1.3,59.32857578
128,0,128,0,180.6805857,181.6930728,181.6767527,181.6767527,,-5,down,1,0.165839152,None,247063,1,2023-09-11_11h58.19.188,Orientationdiscrimination,2023.1.3,59.32857578
129,0,129,0,181.8628538,182.8764637,182.8596064,182.8596064,,0.5,up,1,0.06060571,None,247063,1,2023-09-11_11h58.19.188,Orientationdiscrimination,2023.1.3,59.32857578
130,0,130,0,182.9463728,183.9598934,183.9438405,183.9438405,,0.5,down,0,0.115522059,None,247063,1,2023-09-11_11h58.19.188,Orientationdiscrimination,2023.1.3,59.32857578
131,0,131,0,184.080728,185.0928911,185.0777069,185.0777069,185.3933068,-3,up,0,0.39061666,None,247063,1,2023-09-11_11h58.19.188,Orientationdiscrimination,2023.1.3,59.32857578
132,0,132,0,185.4963343,186.5104423,186.4935868,186.4935868,,-5,down,1,0.23563539,None,247063,1,2023-09-11_11h58.19.188,Orientationdiscrimination,2023.1.3,59.32857578
133,0,133,0,186.7645081,187.7769294,187.7598177,187.7598177,,0.5,up,1,0.060356787,None,247063,1,2023-09-11_11h58.19.188,Orientationdiscrimination,2023.1.3,59.32857578
134,0,134,0,187.8464997,188.8602844,188.8433788,188.8433788,,0.5,up,1,0.075748757,None,247063,1,2023-09-11_11h58.19.188,Orientationdiscrimination,2023.1.3,59.32857578
135,0,135,0,188.9456412,189.9604229,189.9430705,189.9430705,,-3,down,1,0.057342255,None,247063,1,2023-09-11_11h58.19.188,Orientationdiscrimination,2023.1.3,59.32857578
136,0,136,0,190.0295853,191.0437352,191.0272037,191.0272037,,-4,up,0,0.101572228,None,247063,1,2023-09-11_11h58.19.188,Orientationdiscrimination,2023.1.3,59.32857578
137,0,137,0,191.1619988,192.1764853,192.1604147,192.1604147,,0.5,up,1,0.151564213,None,247063,1,2023-09-11_11h58.19.188,Orientationdiscrimination,2023.1.3,59.32857578
138,0,138,0,192.3456505,193.3604837,193.3440573,193.3440573,,0.5,down,0,0.067639685,None,247063,1,2023-09-11_11h58.19.188,Orientationdiscrimination,2023.1.3,59.32857578
139,0,139,0,193.4465606,194.4603713,194.4441309,194.4441309,,-3,down,1,0.220040705,None,247063,1,2023-09-11_11h58.19.188,Orientationdiscrimination,2023.1.3,59.32857578
140,0,140,0,194.6964928,195.7101867,195.6940453,195.6940453,195.9967418,0.5,up,1,0.268197608,None,247063,1,2023-09-11_11h58.19.188,Orientationdiscrimination,2023.1.3,59.32857578
141,0,141,0,195.9967418,197.0111137,196.9938728,196.9938728,,0.5,up,1,0.085807212,None,247063,1,2023-09-11_11h58.19.188,Orientationdiscrimination,2023.1.3,59.32857578
142,0,142,0,197.1139668,198.1275823,198.1106689,198.1106689,,-5,down,1,0.117890711,None,247063,1,2023-09-11_11h58.19.188,Orientationdiscrimination,2023.1.3,59.32857578
143,0,143,0,198.2633233,199.2778331,199.261306,199.261306,199.5617469,0.5,down,0,0.316367493,None,247063,1,2023-09-11_11h58.19.188,Orientationdiscrimination,2023.1.3,59.32857578
144,0,144,0,199.5982326,200.6105997,200.5936861,200.5936861,200.8945579,-2,down,1,0.341574666,None,247063,1,2023-09-11_11h58.19.188,Orientationdiscrimination,2023.1.3,59.32857578
145,0,145,0,200.9636716,201.9779046,201.9612804,201.9612804,,0.5,down,0,0.023884273,None,247063,1,2023-09-11_11h58.19.188,Orientationdiscrimination,2023.1.3,59.32857578
146,0,146,0,202.0136472,203.0283777,203.0109927,203.0109927,,0.5,up,1,0.184786588,None,247063,1,2023-09-11_11h58.19.188,Orientationdiscrimination,2023.1.3,59.32857578
147,0,147,0,203.2274309,204.2282575,204.2282575,204.2282575,204.5279773,-5,up,0,0.400041708,None,247063,1,2023-09-11_11h58.19.188,Orientationdiscrimination,2023.1.3,59.32857578
148,0,148,0,204.6492556,205.6620093,205.6445663,205.6445663,,-3,up,0,0.148789487,None,247063,1,2023-09-11_11h58.19.188,Orientationdiscrimination,2023.1.3,59.32857578
149,0,149,0,205.8152997,206.8285986,206.8117674,206.8117674,,-5,up,0,0.043088272,None,247063,1,2023-09-11_11h58.19.188,Orientationdiscrimination,2023.1.3,59.32857578
150,0,150,0,206.8803105,207.8945213,207.879037,207.879037,208.1949825,0.5,up,1,0.326426466,None,247063,1,2023-09-11_11h58.19.188,Orientationdiscrimination,2023.1.3,59.32857578
151,0,151,0,208.2309814,209.2450116,209.2284744,209.2284744,209.5285828,0.5,up,1,0.308699182,None,247063,1,2023-09-11_11h58.19.188,Orientationdiscrimination,2023.1.3,59.32857578
152,0,152,0,209.5650222,210.57836,210.5620332,210.5620332,,-4,down,1,0.04424399,None,247063,1,2023-09-11_11h58.19.188,Orientationdiscrimination,2023.1.3,59.32857578
153,0,153,0,210.6321185,211.6451271,211.6287222,211.6287222,,-2,down,1,0.077008251,None,247063,1,2023-09-11_11h58.19.188,Orientationdiscrimination,2023.1.3,59.32857578
154,0,154,0,211.7309305,212.7449793,212.7286337,212.7286337,,-5,down,1,0.07273832,None,247063,1,2023-09-11_11h58.19.188,Orientationdiscrimination,2023.1.3,59.32857578
155,0,155,0,212.8313748,213.8449272,213.8287486,213.8287486,,0.5,down,0,0.123474769,None,247063,1,2023-09-11_11h58.19.188,Orientationdiscrimination,2023.1.3,59.32857578
156,0,156,0,213.9807883,214.9959247,214.9790258,214.9790258,215.2788603,0.5,down,0,0.318320349,None,247063,1,2023-09-11_11h58.19.188,Orientationdiscrimination,2023.1.3,59.32857578
157,0,157,0,215.3314838,216.34519,216.3288441,216.3288441,,-5,down,1,0.192877115,None,247063,1,2023-09-11_11h58.19.188,Orientationdiscrimination,2023.1.3,59.32857578
158,0,158,0,216.5495499,217.5622506,217.5454832,217.5454832,,0.5,up,1,0.105006783,None,247063,1,2023-09-11_11h58.19.188,Orientationdiscrimination,2023.1.3,59.32857578
159,0,159,0,217.6827061,218.6961415,218.6788485,218.6788485,,0.5,up,1,0.051237058,None,247063,1,2023-09-11_11h58.19.188,Orientationdiscrimination,2023.1.3,59.32857578
160,0,160,0,218.7653192,219.7786962,219.7625947,219.7625947,,0.5,up,1,0.25765508,None,247063,1,2023-09-11_11h58.19.188,Orientationdiscrimination,2023.1.3,59.32857578
161,0,161,0,220.047641,221.0628713,221.0456182,221.0456182,,0.5,up,1,0.076392292,None,247063,1,2023-09-11_11h58.19.188,Orientationdiscrimination,2023.1.3,59.32857578
162,0,162,0,221.1480149,222.1625012,222.1458755,222.1458755,,-4,up,0,0.223422782,None,247063,1,2023-09-11_11h58.19.188,Orientationdiscrimination,2023.1.3,59.32857578
163,0,163,0,222.3981656,223.4128852,223.3956267,223.3956267,,0.5,down,0,0.101827493,None,247063,1,2023-09-11_11h58.19.188,Orientationdiscrimination,2023.1.3,59.32857578
164,0,164,0,223.5322199,224.5463143,224.5292381,224.5292381,,-2,down,1,0.208456886,None,247063,1,2023-09-11_11h58.19.188,Orientationdiscrimination,2023.1.3,59.32857578
165,0,165,0,224.7652129,225.779732,225.7626736,225.7626736,,-2,down,1,0.118156663,None,247063,1,2023-09-11_11h58.19.188,Orientationdiscrimination,2023.1.3,59.32857578
166,0,166,0,225.9123458,226.9131376,226.9131376,226.9131376,227.2128555,-5,up,0,0.54819279,None,247063,1,2023-09-11_11h58.19.188,Orientationdiscrimination,2023.1.3,59.32857578
167,0,167,0,227.4840091,228.4969383,228.479855,228.479855,,-2,down,1,0.242470678,None,247063,1,2023-09-11_11h58.19.188,Orientationdiscrimination,2023.1.3,59.32857578
168,0,168,0,228.7493633,229.762988,229.7468711,229.7468711,,-5,down,1,0.149283702,None,247063,1,2023-09-11_11h58.19.188,Orientationdiscrimination,2023.1.3,59.32857578
169,0,169,0,229.9168384,230.9297758,230.9135502,230.9135502,231.2130737,0.5,up,1,3.033440082,None,247063,1,2023-09-11_11h58.19.188,Orientationdiscrimination,2023.1.3,59.32857578
170,0,170,0,233.9682408,234.9801982,234.9638253,234.9638253,,0.5,down,0,0.060017945,None,247063,1,2023-09-11_11h58.19.188,Orientationdiscrimination,2023.1.3,59.32857578
171,0,171,0,235.0489539,236.0634308,236.0467356,236.0467356,236.3464652,-4,down,1,2.460573946,None,247063,1,2023-09-11_11h58.19.188,Orientationdiscrimination,2023.1.3,59.32857578
172,0,172,0,238.5330281,239.5478675,239.5305486,239.5305486,,-2,up,0,0.209928209,None,247063,1,2023-09-11_11h58.19.188,Orientationdiscrimination,2023.1.3,59.32857578
173,0,173,0,239.766193,240.7806299,240.7642907,240.7642907,,0.5,up,1,0.135066296,None,247063,1,2023-09-11_11h58.19.188,Orientationdiscrimination,2023.1.3,59.32857578
174,0,174,0,240.932819,241.9469506,241.9304239,241.9304239,,-5,down,1,0.021129965,None,247063,1,2023-09-11_11h58.19.188,Orientationdiscrimination,2023.1.3,59.32857578
175,0,175,0,241.9833806,242.9981184,242.9813374,242.9813374,243.281041,0.5,down,0,3.333396652,None,247063,1,2023-09-11_11h58.19.188,Orientationdiscrimination,2023.1.3,59.32857578
176,0,176,0,246.3352057,247.3475353,247.3311094,247.3311094,247.6309669,0.5,down,0,0.584946275,None,247063,1,2023-09-11_11h58.19.188,Orientationdiscrimination,2023.1.3,59.32857578
177,0,177,0,247.9498553,248.9643352,248.9477851,248.9477851,,0.5,up,1,0.120331383,None,247063,1,2023-09-11_11h58.19.188,Orientationdiscrimination,2023.1.3,59.32857578
178,0,178,0,249.1004517,250.1142834,250.0972463,250.0972463,,0.5,down,0,0.155458848,None,247063,1,2023-09-11_11h58.19.188,Orientationdiscrimination,2023.1.3,59.32857578
179,0,179,0,250.2847427,251.299546,251.2816811,251.2816811,,-3,down,1,0.19205323,None,247063,1,2023-09-11_11h58.19.188,Orientationdiscrimination,2023.1.3,59.32857578
180,0,180,0,251.5005384,252.5148125,252.4979597,252.4979597,252.7977285,0.5,down,0,0.657720441,None,247063,1,2023-09-11_11h58.19.188,Orientationdiscrimination,2023.1.3,59.32857578
181,0,181,0,253.1870372,254.1976418,254.1816619,254.1816619,254.4813833,0.5,up,1,0.438580169,None,247063,1,2023-09-11_11h58.19.188,Orientationdiscrimination,2023.1.3,59.32857578
182,0,182,0,254.6514114,255.6648929,255.6482672,255.6482672,,0.5,down,0,0.102279295,None,247063,1,2023-09-11_11h58.19.188,Orientationdiscrimination,2023.1.3,59.32857578
183,0,183,0,255.7848881,256.7981986,256.7819954,256.7819954,,0.5,down,0,0.151150691,None,247063,1,2023-09-11_11h58.19.188,Orientationdiscrimination,2023.1.3,59.32857578
184,0,184,0,256.967726,257.9814762,257.9654288,257.9654288,,0.5,up,1,0.11715557,None,247063,1,2023-09-11_11h58.19.188,Orientationdiscrimination,2023.1.3,59.32857578
185,0,185,0,258.1177305,259.1321174,259.1149395,259.1149395,,-4,down,1,0.031998845,None,247063,1,2023-09-11_11h58.19.188,Orientationdiscrimination,2023.1.3,59.32857578
186,0,186,0,259.1684875,260.1812191,260.1650697,260.1650697,260.4650214,-5,down,1,0.511292878,None,247063,1,2023-09-11_11h58.19.188,Orientationdiscrimination,2023.1.3,59.32857578
187,0,187,0,260.7008261,261.7150641,261.6986589,261.6986589,,0.5,down,0,0.189669134,None,247063,1,2023-09-11_11h58.19.188,Orientationdiscrimination,2023.1.3,59.32857578
188,0,188,0,261.9181063,262.9328543,262.9152749,262.9152749,,-5,down,1,0.0845104,None,247063,1,2023-09-11_11h58.19.188,Orientationdiscrimination,2023.1.3,59.32857578
189,0,189,0,263.0321296,264.0325635,264.0325635,264.0325635,,-4,down,1,0.008774837,None,247063,1,2023-09-11_11h58.19.188,Orientationdiscrimination,2023.1.3,59.32857578
190,0,190,0,264.0670904,265.0824049,265.0667402,265.0667402,,0.5,up,1,0.267563955,None,247063,1,2023-09-11_11h58.19.188,Orientationdiscrimination,2023.1.3,59.32857578
191,0,191,0,265.3678955,266.3818811,266.3655737,266.3655737,,0.5,down,0,0.051130201,None,247063,1,2023-09-11_11h58.19.188,Orientationdiscrimination,2023.1.3,59.32857578
192,0,192,0,266.4521198,267.4652522,267.4490684,267.4490684,,0.5,up,1,0.175493348,None,247063,1,2023-09-11_11h58.19.188,Orientationdiscrimination,2023.1.3,59.32857578
193,0,193,0,267.6511985,268.6656484,268.6488462,268.6488462,268.949403,0.5,up,1,0.305529988,None,247063,1,2023-09-11_11h58.19.188,Orientationdiscrimination,2023.1.3,59.32857578
194,0,194,0,268.9862023,269.9993465,269.981868,269.981868,,0.5,down,0,0.151740509,None,247063,1,2023-09-11_11h58.19.188,Orientationdiscrimination,2023.1.3,59.32857578
195,0,195,0,270.1692435,271.182527,271.1658224,271.1658224,,-3,down,1,0.158108548,None,247063,1,2023-09-11_11h58.19.188,Orientationdiscrimination,2023.1.3,59.32857578
196,0,196,0,271.3512507,272.3661703,272.3492024,272.3492024,272.6496039,-4,up,0,0.521549775,None,247063,1,2023-09-11_11h58.19.188,Orientationdiscrimination,2023.1.3,59.32857578
197,0,197,0,272.9020511,273.9159177,273.8997178,273.8997178,,0.5,up,1,0.250906215,None,247063,1,2023-09-11_11h58.19.188,Orientationdiscrimination,2023.1.3,59.32857578
198,0,198,0,274.1864921,275.1997423,275.1824664,275.1824664,,0.5,down,0,0.173973129,None,247063,1,2023-09-11_11h58.19.188,Orientationdiscrimination,2023.1.3,59.32857578
199,0,199,0,275.3853666,276.3995917,276.3832078,276.3832078,,-3,up,0,0.240585538,None,247063,1,2023-09-11_11h58.19.188,Orientationdiscrimination,2023.1.3,59.32857578