pos,corr_resp,trials.thisRepN,trials.thisTrialN,trials.thisN,trials.thisIndex,trials_2.thisRepN,trials_2.thisTrialN,trials_2.thisN,trials_2.thisIndex,Fixation.started,line1.started,line2.started,line3.started,line4.started,Fixation.stopped,probe.started,key_resp.started,key_resp.keys,key_resp.corr,key_resp.rt,key_resp.duration,participant,session,date,expName,psychopyVersion,frameRate
-50,x,0,0,0,0,,,,,15.23943183,16.21336938,16.21336938,16.21336938,16.21336938,16.24772675,17.21411163,17.21411163,x,1,1.767878408,None,794763,1,2023-10-16_12h10.11.535,Sequential learning ,2023.1.3,59.05979918
150,v,0,1,1,1,,,,,19.05672779,20.04789648,20.04789648,20.04789648,20.04789648,20.06422921,21.04754818,21.04754818,v,1,1.533794549,None,794763,1,2023-10-16_12h10.11.535,Sequential learning ,2023.1.3,59.05979918
50,c,0,2,2,2,,,,,22.60573364,23.59714219,23.59714219,23.59714219,23.59714219,23.61442615,24.59760647,24.59760647,c,1,1.027366876,None,794763,1,2023-10-16_12h10.11.535,Sequential learning ,2023.1.3,59.05979918
-150,z,0,3,3,3,,,,,25.65675869,26.64705804,26.64705804,26.64705804,26.64705804,26.66467852,27.64818059,27.64818059,z,1,0.685902932,None,794763,1,2023-10-16_12h10.11.535,Sequential learning ,2023.1.3,59.05979918
-50,x,1,0,4,0,,,,,28.37050383,29.36436351,29.36436351,29.36436351,29.36436351,29.38149937,30.36510248,30.36510248,c,1,0.484483773,None,794763,1,2023-10-16_12h10.11.535,Sequential learning ,2023.1.3,59.05979918
150,v,1,1,5,1,,,,,30.88619234,31.88093124,31.88093124,31.88093124,31.88093124,31.89872857,32.88169828,32.88169828,v,1,0.839429616,None,794763,1,2023-10-16_12h10.11.535,Sequential learning ,2023.1.3,59.05979918
50,c,1,2,6,2,,,,,33.75629956,34.74785497,34.74785497,34.74785497,34.74785497,34.7652907,35.74844672,35.74844672,c,1,0.425265341,None,794763,1,2023-10-16_12h10.11.535,Sequential learning ,2023.1.3,59.05979918
-150,z,1,3,7,3,,,,,36.20578637,37.19941096,37.19941096,37.19941096,37.19941096,37.21531494,38.19928318,38.19928318,z,1,0.674768156,None,794763,1,2023-10-16_12h10.11.535,Sequential learning ,2023.1.3,59.05979918
-50,x,2,0,8,0,,,,,38.90583571,39.90115741,39.90115741,39.90115741,39.90115741,39.91585708,40.89923103,40.89923103,x,1,0.291338852,None,794763,1,2023-10-16_12h10.11.535,Sequential learning ,2023.1.3,59.05979918
150,v,2,1,9,1,,,,,41.22253594,42.21575533,42.21575533,42.21575533,42.21575533,42.23252118,43.21631074,43.21631074,v,1,0.919460189,None,794763,1,2023-10-16_12h10.11.535,Sequential learning ,2023.1.3,59.05979918
50,c,2,2,10,2,,,,,44.17108189,45.1656446,45.1656446,45.1656446,45.1656446,45.18273388,46.16645421,46.16645421,c,1,0.497761014,None,794763,1,2023-10-16_12h10.11.535,Sequential learning ,2023.1.3,59.05979918
-150,z,2,3,11,3,,,,,46.68987862,47.68289178,47.68289178,47.68289178,47.68289178,47.70020705,48.68349094,48.68349094,z,1,0.634022323,None,794763,1,2023-10-16_12h10.11.535,Sequential learning ,2023.1.3,59.05979918
-50,x,3,0,12,0,,,,,49.35441047,50.34945693,50.34945693,50.34945693,50.34945693,50.36651763,51.35022583,51.35022583,x,1,0.800666789,None,794763,1,2023-10-16_12h10.11.535,Sequential learning ,2023.1.3,59.05979918
150,v,3,1,13,1,,,,,52.18729327,53.18268315,53.18268315,53.18268315,53.18268315,53.19977817,54.18333754,54.18333754,c,1,0.348381921,None,794763,1,2023-10-16_12h10.11.535,Sequential learning ,2023.1.3,59.05979918
50,c,3,2,14,2,,,,,54.56161856,55.55010245,55.55010245,55.55010245,55.55010245,55.56679688,56.54972295,56.54972295,c,1,1.032801345,None,794763,1,2023-10-16_12h10.11.535,Sequential learning ,2023.1.3,59.05979918
-150,z,3,3,15,3,,,,,57.60838973,58.59965956,58.59965956,58.59965956,58.59965956,58.61719792,59.60084536,59.60084536,z,1,0.771879893,None,794763,1,2023-10-16_12h10.11.535,Sequential learning ,2023.1.3,59.05979918
-50,x,4,0,16,0,,,,,60.40765131,61.40028982,61.40028982,61.40028982,61.40028982,61.41703445,62.40043488,62.40043488,x,1,0.982159476,None,794763,1,2023-10-16_12h10.11.535,Sequential learning ,2023.1.3,59.05979918
150,v,4,1,17,1,,,,,63.40852034,64.40076426,64.40076426,64.40076426,64.40076426,64.41772307,65.40045074,65.40045074,v,1,0.951504174,None,794763,1,2023-10-16_12h10.11.535,Sequential learning ,2023.1.3,59.05979918
50,c,4,2,18,2,,,,,66.39047263,67.38369472,67.38369472,67.38369472,67.38369472,67.40124748,68.38413542,68.38413542,c,1,0.777127676,None,794763,1,2023-10-16_12h10.11.535,Sequential learning ,2023.1.3,59.05979918
-150,z,4,3,19,3,,,,,69.19167889,70.18395785,70.18395785,70.18395785,70.18395785,70.20102636,71.18481031,71.18481031,z,1,0.600404787,None,794763,1,2023-10-16_12h10.11.535,Sequential learning ,2023.1.3,59.05979918
-50,x,5,0,20,0,,,,,71.82434792,72.81775421,72.81775421,72.81775421,72.81775421,72.83476896,73.81885461,73.81885461,x,1,0.366507864,None,794763,1,2023-10-16_12h10.11.535,Sequential learning ,2023.1.3,59.05979918
150,v,5,1,21,1,,,,,74.22214895,75.21857476,75.21857476,75.21857476,75.21857476,75.23502597,76.2183326,76.2183326,v,1,0.511488174,None,794763,1,2023-10-16_12h10.11.535,Sequential learning ,2023.1.3,59.05979918
50,c,5,2,22,2,,,,,76.76147463,77.75339549,77.75339549,77.75339549,77.75339549,77.76744469,78.75148626,78.75148626,c,1,0.554534627,None,794763,1,2023-10-16_12h10.11.535,Sequential learning ,2023.1.3,59.05979918
-150,z,5,3,23,3,,,,,79.34200966,80.33455775,80.33455775,80.33455775,80.33455775,80.35135212,81.33509801,81.33509801,z,1,0.553562787,None,794763,1,2023-10-16_12h10.11.535,Sequential learning ,2023.1.3,59.05979918
-50,x,6,0,24,0,,,,,81.92312709,82.91856292,82.91856292,82.91856292,82.91856292,82.93536431,83.91895688,83.91895688,x,1,0.583868466,None,794763,1,2023-10-16_12h10.11.535,Sequential learning ,2023.1.3,59.05979918
150,v,6,1,25,1,,,,,84.54036449,85.53475085,85.53475085,85.53475085,85.53475085,85.55205147,86.53556347,86.53556347,v,1,0.911039928,None,794763,1,2023-10-16_12h10.11.535,Sequential learning ,2023.1.3,59.05979918
50,c,6,2,26,2,,,,,87.47581839,88.46873444,88.46873444,88.46873444,88.46873444,88.48559161,89.46945721,89.46945721,c,1,0.434861409,None,794763,1,2023-10-16_12h10.11.535,Sequential learning ,2023.1.3,59.05979918
-150,z,6,3,27,3,,,,,89.94231145,90.93546655,90.93546655,90.93546655,90.93546655,90.95226361,91.93581624,91.93581624,z,1,0.654512102,None,794763,1,2023-10-16_12h10.11.535,Sequential learning ,2023.1.3,59.05979918
-50,x,7,0,28,0,,,,,92.62558159,93.61879784,93.61879784,93.61879784,93.61879784,93.63583215,94.61961032,94.61961032,x,1,0.40308465,None,794763,1,2023-10-16_12h10.11.535,Sequential learning ,2023.1.3,59.05979918
150,v,7,1,29,1,,,,,95.0598242,96.05337805,96.05337805,96.05337805,96.05337805,96.06968182,97.05353523,97.05353523,v,1,0.80925487,None,794763,1,2023-10-16_12h10.11.535,Sequential learning ,2023.1.3,59.05979918
50,c,7,2,30,2,,,,,97.89303061,98.88591029,98.88591029,98.88591029,98.88591029,98.9030474,99.88623785,99.88623785,c,1,0.652318435,None,794763,1,2023-10-16_12h10.11.535,Sequential learning ,2023.1.3,59.05979918
-150,z,7,3,31,3,,,,,100.5769172,101.5695939,101.5695939,101.5695939,101.5695939,101.5870035,102.5703115,102.5703115,z,1,1.05364828,None,794763,1,2023-10-16_12h10.11.535,Sequential learning ,2023.1.3,59.05979918
-50,x,8,0,32,0,,,,,103.6603968,104.6531217,104.6531217,104.6531217,104.6531217,104.670311,105.6534597,105.6534597,x,1,0.676247455,None,794763,1,2023-10-16_12h10.11.535,Sequential learning ,2023.1.3,59.05979918
150,v,8,1,33,1,,,,,106.3639417,107.3532302,107.3532302,107.3532302,107.3532302,107.3707991,108.3538307,108.3538307,v,1,1.083077719,None,794763,1,2023-10-16_12h10.11.535,Sequential learning ,2023.1.3,59.05979918
50,c,8,2,34,2,,,,,109.4609737,110.4536985,110.4536985,110.4536985,110.4536985,110.4707041,111.4545845,111.4545845,z,1,0.288468319,None,794763,1,2023-10-16_12h10.11.535,Sequential learning ,2023.1.3,59.05979918
-150,z,8,3,35,3,,,,,111.7784381,112.7720377,112.7720377,112.7720377,112.7720377,112.7872914,113.7706402,113.7706402,x,1,0.369596982,None,794763,1,2023-10-16_12h10.11.535,Sequential learning ,2023.1.3,59.05979918
-50,x,9,0,36,0,,,,,114.1749266,115.1708207,115.1708207,115.1708207,115.1708207,115.1880465,116.1707741,116.1707741,c,1,0.351166845,None,794763,1,2023-10-16_12h10.11.535,Sequential learning ,2023.1.3,59.05979918
150,v,9,1,37,1,,,,,116.546767,117.5373445,117.5373445,117.5373445,117.5373445,117.5546179,118.5379561,118.5379561,v,1,0.325826126,None,794763,1,2023-10-16_12h10.11.535,Sequential learning ,2023.1.3,59.05979918
50,c,9,2,38,2,,,,,118.8948873,119.8873367,119.8873367,119.8873367,119.8873367,119.904307,120.8880903,120.8880903,c,1,0.659477242,None,794763,1,2023-10-16_12h10.11.535,Sequential learning ,2023.1.3,59.05979918
-150,z,9,3,39,3,,,,,121.5780476,122.5708014,122.5708014,122.5708014,122.5708014,122.5883119,123.5713572,123.5713572,z,1,0.571313392,None,794763,1,2023-10-16_12h10.11.535,Sequential learning ,2023.1.3,59.05979918
-50,x,10,0,40,0,,,,,124.1780981,125.1716176,125.1716176,125.1716176,125.1716176,125.188662,126.1722464,126.1722464,x,1,0.534275973,None,794763,1,2023-10-16_12h10.11.535,Sequential learning ,2023.1.3,59.05979918
150,v,10,1,41,1,,,,,126.7510735,127.7386526,127.7386526,127.7386526,127.7386526,127.7546333,128.7389391,128.7389391,v,1,0.630625268,None,794763,1,2023-10-16_12h10.11.535,Sequential learning ,2023.1.3,59.05979918
50,c,10,2,42,2,,,,,129.3956915,130.3879595,130.3879595,130.3879595,130.3879595,130.4054196,131.3884743,131.3884743,c,1,0.815781357,None,794763,1,2023-10-16_12h10.11.535,Sequential learning ,2023.1.3,59.05979918
-150,z,10,3,43,3,,,,,132.231436,133.2214794,133.2214794,133.2214794,133.2214794,133.2387023,134.222322,134.222322,z,1,0.738078251,None,794763,1,2023-10-16_12h10.11.535,Sequential learning ,2023.1.3,59.05979918
-50,x,11,0,44,0,,,,,134.9962256,135.9884285,135.9884285,135.9884285,135.9884285,136.0057793,136.9899843,136.9899843,x,1,0.41169572,None,794763,1,2023-10-16_12h10.11.535,Sequential learning ,2023.1.3,59.05979918
150,v,11,1,45,1,,,,,137.4295425,138.421741,138.421741,138.421741,138.421741,138.439008,139.422381,139.422381,v,1,0.420479286,None,794763,1,2023-10-16_12h10.11.535,Sequential learning ,2023.1.3,59.05979918
50,c,11,2,46,2,,,,,139.8779441,140.8717941,140.8717941,140.8717941,140.8717941,140.8898818,141.8725299,141.8725299,c,1,0.645064967,None,794763,1,2023-10-16_12h10.11.535,Sequential learning ,2023.1.3,59.05979918
-150,z,11,3,47,3,,,,,142.5460127,143.5389191,143.5389191,143.5389191,143.5389191,143.5562675,144.5400444,144.5400444,z,1,0.631510625,None,794763,1,2023-10-16_12h10.11.535,Sequential learning ,2023.1.3,59.05979918
-50,x,12,0,48,0,,,,,145.1983707,146.1890437,146.1890437,146.1890437,146.1890437,146.2065706,147.1900252,147.1900252,x,1,2.788692572,None,794763,1,2023-10-16_12h10.11.535,Sequential learning ,2023.1.3,59.05979918
150,v,12,1,49,1,,,,,150.0135782,151.0064207,151.0064207,151.0064207,151.0064207,151.0229755,152.0072908,152.0072908,v,1,0.531478478,None,794763,1,2023-10-16_12h10.11.535,Sequential learning ,2023.1.3,59.05979918
50,c,12,2,50,2,,,,,152.5644453,153.556127,153.556127,153.556127,153.556127,153.5737688,154.5566257,154.5566257,c,1,0.882345347,None,794763,1,2023-10-16_12h10.11.535,Sequential learning ,2023.1.3,59.05979918
-150,z,12,3,51,3,,,,,155.4651379,156.4569111,156.4569111,156.4569111,156.4569111,156.4735126,157.4578963,157.4578963,z,1,0.350647047,None,794763,1,2023-10-16_12h10.11.535,Sequential learning ,2023.1.3,59.05979918
-50,x,13,0,52,0,,,,,157.8457263,158.8394805,158.8394805,158.8394805,158.8394805,158.8571781,159.840638,159.840638,x,1,0.774874616,None,794763,1,2023-10-16_12h10.11.535,Sequential learning ,2023.1.3,59.05979918
150,v,13,1,53,1,,,,,160.64798,161.6412154,161.6412154,161.6412154,161.6412154,161.6572295,162.6407174,162.6407174,v,1,1.70109119,None,794763,1,2023-10-16_12h10.11.535,Sequential learning ,2023.1.3,59.05979918
50,c,13,2,54,2,,,,,164.3700074,165.3578911,165.3578911,165.3578911,165.3578911,165.3738179,166.3583464,166.3583464,c,1,0.549946988,None,794763,1,2023-10-16_12h10.11.535,Sequential learning ,2023.1.3,59.05979918
-150,z,13,3,55,3,,,,,166.9455849,167.9406573,167.9406573,167.9406573,167.9406573,167.9577815,168.9408137,168.9408137,z,1,1.487125056,None,794763,1,2023-10-16_12h10.11.535,Sequential learning ,2023.1.3,59.05979918
-50,x,14,0,56,0,,,,,170.466213,171.4574732,171.4574732,171.4574732,171.4574732,171.4747393,172.45809,172.45809,x,1,0.477566725,None,794763,1,2023-10-16_12h10.11.535,Sequential learning ,2023.1.3,59.05979918
150,v,14,1,57,1,,,,,172.9645328,173.957982,173.957982,173.957982,173.957982,173.974839,174.9580281,174.9580281,v,1,0.419222914,None,794763,1,2023-10-16_12h10.11.535,Sequential learning ,2023.1.3,59.05979918
50,c,14,2,58,2,,,,,175.4144736,176.4082432,176.4082432,176.4082432,176.4082432,176.4251894,177.4083453,177.4083453,x,1,0.382250957,None,794763,1,2023-10-16_12h10.11.535,Sequential learning ,2023.1.3,59.05979918
-150,z,14,3,59,3,,,,,177.816751,178.8078619,178.8078619,178.8078619,178.8078619,178.8249028,179.8091318,179.8091318,z,1,0.402821361,None,794763,1,2023-10-16_12h10.11.535,Sequential learning ,2023.1.3,59.05979918
-50,x,15,0,60,0,,,,,180.2486004,181.2417189,181.2417189,181.2417189,181.2417189,181.2588309,182.242073,182.242073,x,1,0.487293596,None,794763,1,2023-10-16_12h10.11.535,Sequential learning ,2023.1.3,59.05979918
150,v,15,1,61,1,,,,,182.7660913,183.7581415,183.7581415,183.7581415,183.7581415,183.7759769,184.7590583,184.7590583,v,1,1.017666904,None,794763,1,2023-10-16_12h10.11.535,Sequential learning ,2023.1.3,59.05979918
50,c,15,2,62,2,,,,,185.8137741,186.8101158,186.8101158,186.8101158,186.8101158,186.8256708,187.808905,187.808905,x,1,0.30942212,None,794763,1,2023-10-16_12h10.11.535,Sequential learning ,2023.1.3,59.05979918
-150,z,15,3,63,3,,,,,188.1499475,189.1424088,189.1424088,189.1424088,189.1424088,189.1595019,190.1425689,190.1425689,z,1,7.389394196,None,794763,1,2023-10-16_12h10.11.535,Sequential learning ,2023.1.3,59.05979918
-50,x,16,0,64,0,,,,,197.5662582,198.5596391,198.5596391,198.5596391,198.5596391,198.576564,199.5599824,199.5599824,x,1,0.777856218,None,794763,1,2023-10-16_12h10.11.535,Sequential learning ,2023.1.3,59.05979918
150,v,16,1,65,1,,,,,200.3712449,201.3592049,201.3592049,201.3592049,201.3592049,201.3774616,202.3602349,202.3602349,v,1,0.6258931,None,794763,1,2023-10-16_12h10.11.535,Sequential learning ,2023.1.3,59.05979918
50,c,16,2,66,2,,,,,203.0174515,204.0095765,204.0095765,204.0095765,204.0095765,204.0271065,205.0099229,205.0099229,c,1,1.035155423,None,794763,1,2023-10-16_12h10.11.535,Sequential learning ,2023.1.3,59.05979918
-150,z,16,3,67,3,,,,,206.0825331,207.0764936,207.0764936,207.0764936,207.0764936,207.0941129,208.077518,208.077518,z,1,0.702645092,None,794763,1,2023-10-16_12h10.11.535,Sequential learning ,2023.1.3,59.05979918
-50,x,17,0,68,0,,,,,208.8155052,209.8098891,209.8098891,209.8098891,209.8098891,209.8271688,210.8102806,210.8102806,x,1,1.107833479,None,794763,1,2023-10-16_12h10.11.535,Sequential learning ,2023.1.3,59.05979918
150,v,17,1,69,1,,,,,211.9514189,212.9436917,212.9436917,212.9436917,212.9436917,212.9605793,213.9441477,213.9441477,v,1,1.085154851,None,794763,1,2023-10-16_12h10.11.535,Sequential learning ,2023.1.3,59.05979918
50,c,17,2,70,2,,,,,215.065956,216.0610832,216.0610832,216.0610832,216.0610832,216.0780703,217.0616261,217.0616261,c,1,1.982035911,None,794763,1,2023-10-16_12h10.11.535,Sequential learning ,2023.1.3,59.05979918
-150,z,17,3,71,3,,,,,219.0705308,220.0613713,220.0613713,220.0613713,220.0613713,220.0782024,221.061657,221.061657,z,1,1.320254046,None,794763,1,2023-10-16_12h10.11.535,Sequential learning ,2023.1.3,59.05979918
-50,x,18,0,72,0,,,,,222.4185132,223.4114114,223.4114114,223.4114114,223.4114114,223.4286127,224.4115242,224.4115242,x,1,0.968609503,None,794763,1,2023-10-16_12h10.11.535,Sequential learning ,2023.1.3,59.05979918
150,v,18,1,73,1,,,,,225.4165087,226.411067,226.411067,226.411067,226.411067,226.4286596,227.4124155,227.4124155,v,1,1.197752694,None,794763,1,2023-10-16_12h10.11.535,Sequential learning ,2023.1.3,59.05979918
50,c,18,2,74,2,,,,,228.6362932,229.6280769,229.6280769,229.6280769,229.6280769,229.6450846,230.6293197,230.6293197,c,1,1.217382665,None,794763,1,2023-10-16_12h10.11.535,Sequential learning ,2023.1.3,59.05979918
-150,z,18,3,75,3,,,,,231.8855319,232.8783204,232.8783204,232.8783204,232.8783204,232.8955749,233.8793685,233.8793685,z,1,0.671016499,None,794763,1,2023-10-16_12h10.11.535,Sequential learning ,2023.1.3,59.05979918
-50,x,19,0,76,0,,,,,234.585773,235.580236,235.580236,235.580236,235.580236,235.5956408,236.5795456,236.5795456,x,1,0.676822152,None,794763,1,2023-10-16_12h10.11.535,Sequential learning ,2023.1.3,59.05979918
150,v,19,1,77,1,,,,,237.2862131,238.2793974,238.2793974,238.2793974,238.2793974,238.2960873,239.2794133,239.2794133,v,1,1.242532245,None,794763,1,2023-10-16_12h10.11.535,Sequential learning ,2023.1.3,59.05979918
50,c,19,2,78,2,,,,,240.552333,241.5462427,241.5462427,241.5462427,241.5462427,241.5630303,242.5467273,242.5467273,c,1,0.665174713,None,794763,1,2023-10-16_12h10.11.535,Sequential learning ,2023.1.3,59.05979918
-150,z,19,3,79,3,,,,,243.2385431,244.2295292,244.2295292,244.2295292,244.2295292,244.2462326,245.229611,245.229611,z,1,0.7218752,None,794763,1,2023-10-16_12h10.11.535,Sequential learning ,2023.1.3,59.05979918
-50,x,20,0,80,0,,,,,245.9849663,246.9790804,246.9790804,246.9790804,246.9790804,246.9967937,247.9802378,247.9802378,x,1,1.417369797,None,794763,1,2023-10-16_12h10.11.535,Sequential learning ,2023.1.3,59.05979918
150,v,20,1,81,1,,,,,249.4354809,250.4296688,250.4296688,250.4296688,250.4296688,250.4467897,251.4305439,251.4305439,v,1,1.017304621,None,794763,1,2023-10-16_12h10.11.535,Sequential learning ,2023.1.3,59.05979918
50,c,20,2,82,2,,,,,252.4730295,253.4630784,253.4630784,253.4630784,253.4630784,253.4803591,254.4642884,254.4642884,c,1,0.577286894,None,794763,1,2023-10-16_12h10.11.535,Sequential learning ,2023.1.3,59.05979918
-150,z,20,3,83,3,,,,,255.0706387,256.0642045,256.0642045,256.0642045,256.0642045,256.0806069,257.0634525,257.0634525,z,1,0.870178277,None,794763,1,2023-10-16_12h10.11.535,Sequential learning ,2023.1.3,59.05979918
-50,x,21,0,84,0,,,,,257.9700181,258.9638274,258.9638274,258.9638274,258.9638274,258.9805608,259.9645253,259.9645253,x,1,0.601473032,None,794763,1,2023-10-16_12h10.11.535,Sequential learning ,2023.1.3,59.05979918
150,v,21,1,85,1,,,,,260.6023705,261.5966689,261.5966689,261.5966689,261.5966689,261.6143317,262.5978237,262.5978237,v,1,0.810544067,None,794763,1,2023-10-16_12h10.11.535,Sequential learning ,2023.1.3,59.05979918
50,c,21,2,86,2,,,,,263.4380921,264.4305578,264.4305578,264.4305578,264.4305578,264.4478352,265.4312097,265.4312097,c,1,0.808197507,None,794763,1,2023-10-16_12h10.11.535,Sequential learning ,2023.1.3,59.05979918
-150,z,21,3,87,3,,,,,266.2716525,267.2652634,267.2652634,267.2652634,267.2652634,267.2813147,268.2654493,268.2654493,z,1,1.035701071,None,794763,1,2023-10-16_12h10.11.535,Sequential learning ,2023.1.3,59.05979918
-50,x,22,0,88,0,,,,,269.3395755,270.3308968,270.3308968,270.3308968,270.3308968,270.3481106,271.3315743,271.3315743,x,1,0.719826399,None,794763,1,2023-10-16_12h10.11.535,Sequential learning ,2023.1.3,59.05979918
150,v,22,1,89,1,,,,,272.0863211,273.0814125,273.0814125,273.0814125,273.0814125,273.0984047,274.0821113,274.0821113,v,1,0.810580013,None,794763,1,2023-10-16_12h10.11.535,Sequential learning ,2023.1.3,59.05979918
50,c,22,2,90,2,,,,,274.9213677,275.9143382,275.9143382,275.9143382,275.9143382,275.9316341,276.9153411,276.9153411,c,1,0.682894245,None,794763,1,2023-10-16_12h10.11.535,Sequential learning ,2023.1.3,59.05979918
-150,z,22,3,91,3,,,,,277.6260476,278.6153478,278.6153478,278.6153478,278.6153478,278.6320563,279.6155735,279.6155735,z,1,0.851661638,None,794763,1,2023-10-16_12h10.11.535,Sequential learning ,2023.1.3,59.05979918
-50,x,23,0,92,0,,,,,280.5046246,281.4980379,281.4980379,281.4980379,281.4980379,281.5159932,282.5283037,282.5283037,x,1,0.787231348,None,794763,1,2023-10-16_12h10.11.535,Sequential learning ,2023.1.3,59.05979918
150,v,23,1,93,1,,,,,283.3401566,284.3321079,284.3321079,284.3321079,284.3321079,284.3496928,285.332597,285.332597,v,1,0.93203907,None,794763,1,2023-10-16_12h10.11.535,Sequential learning ,2023.1.3,59.05979918
50,c,23,2,94,2,,,,,286.2921047,287.2820254,287.2820254,287.2820254,287.2820254,287.2994242,288.2825691,288.2825691,c,1,0.726954852,None,794763,1,2023-10-16_12h10.11.535,Sequential learning ,2023.1.3,59.05979918
-150,z,23,3,95,3,,,,,289.0397483,290.0317045,290.0317045,290.0317045,290.0317045,290.0492977,291.0333198,291.0333198,z,1,1.108778061,None,794763,1,2023-10-16_12h10.11.535,Sequential learning ,2023.1.3,59.05979918
-50,x,24,0,96,0,,,,,292.1730723,293.1660374,293.1660374,293.1660374,293.1660374,293.1831563,294.1668444,294.1668444,x,1,1.084344366,None,794763,1,2023-10-16_12h10.11.535,Sequential learning ,2023.1.3,59.05979918
150,v,24,1,97,1,,,,,295.2866873,296.2831398,296.2831398,296.2831398,296.2831398,296.3003374,297.2838915,297.2838915,v,1,1.133603011,None,794763,1,2023-10-16_12h10.11.535,Sequential learning ,2023.1.3,59.05979918
50,c,24,2,98,2,,,,,298.4550991,299.4500344,299.4500344,299.4500344,299.4500344,299.4667625,300.4501812,300.4501812,c,1,0.750443924,None,794763,1,2023-10-16_12h10.11.535,Sequential learning ,2023.1.3,59.05979918
-150,z,24,3,99,3,,,,,301.2261495,302.2164251,302.2164251,302.2164251,302.2164251,302.2343513,303.2175646,303.2175646,z,1,0.802768758,None,794763,1,2023-10-16_12h10.11.535,Sequential learning ,2023.1.3,59.05979918
-50,x,25,0,100,0,,,,,304.0546334,305.0545395,305.0545395,305.0545395,305.0545395,305.0670308,306.0504908,306.0504908,x,1,1.100863178,None,794763,1,2023-10-16_12h10.11.535,Sequential learning ,2023.1.3,59.05979918
150,v,25,1,101,1,,,,,307.1946458,308.1838135,308.1838135,308.1838135,308.1838135,308.2009529,309.1843293,309.1843293,v,1,0.928020774,None,794763,1,2023-10-16_12h10.11.535,Sequential learning ,2023.1.3,59.05979918
50,c,25,2,102,2,,,,,310.1409686,311.1342064,311.1342064,311.1342064,311.1342064,311.1510697,312.1347357,312.1347357,c,1,1.682425936,None,794763,1,2023-10-16_12h10.11.535,Sequential learning ,2023.1.3,59.05979918
-150,z,25,3,103,3,,,,,313.8436606,314.8340761,314.8340761,314.8340761,314.8340761,314.8511427,315.8347879,315.8347879,z,1,0.858750997,None,794763,1,2023-10-16_12h10.11.535,Sequential learning ,2023.1.3,59.05979918
-50,x,26,0,104,0,,,,,316.7282767,317.7182855,317.7182855,317.7182855,317.7182855,317.7341982,318.7182514,318.7182514,x,1,0.739646077,None,794763,1,2023-10-16_12h10.11.535,Sequential learning ,2023.1.3,59.05979918
150,v,26,1,105,1,,,,,319.4915899,320.4869789,320.4869789,320.4869789,320.4869789,320.5013339,321.4854225,321.4854225,v,1,2.952418674,None,794763,1,2023-10-16_12h10.11.535,Sequential learning ,2023.1.3,59.05979918
50,c,26,2,106,2,,,,,324.473984,325.46857,325.46857,325.46857,325.46857,325.4852609,326.4689418,326.4689418,c,1,0.785004928,None,794763,1,2023-10-16_12h10.11.535,Sequential learning ,2023.1.3,59.05979918
-150,z,26,3,107,3,,,,,327.2946454,328.2863905,328.2863905,328.2863905,328.2863905,328.3026159,329.2855255,329.2855255,z,1,0.684713252,None,794763,1,2023-10-16_12h10.11.535,Sequential learning ,2023.1.3,59.05979918
-50,x,27,0,108,0,,,,,330.0079064,331.001796,331.001796,331.001796,331.001796,331.0191656,332.0025019,332.0025019,x,1,1.054904129,None,794763,1,2023-10-16_12h10.11.535,Sequential learning ,2023.1.3,59.05979918
150,v,27,1,109,1,,,,,333.092364,334.0852089,334.0852089,334.0852089,334.0852089,334.1025366,335.0861795,335.0861795,v,1,1.025106976,None,794763,1,2023-10-16_12h10.11.535,Sequential learning ,2023.1.3,59.05979918
50,c,27,2,110,2,,,,,336.1438522,337.1355928,337.1355928,337.1355928,337.1355928,337.1524573,338.1358866,338.1358866,c,1,0.63486401,None,794763,1,2023-10-16_12h10.11.535,Sequential learning ,2023.1.3,59.05979918
-150,z,27,3,111,3,,,,,338.806893,339.8021656,339.8021656,339.8021656,339.8021656,339.8194126,340.8033343,340.8033343,z,1,0.871265759,None,794763,1,2023-10-16_12h10.11.535,Sequential learning ,2023.1.3,59.05979918
-50,x,28,0,112,0,,,,,341.7093343,342.702918,342.702918,342.702918,342.702918,342.7204723,343.7031268,343.7031268,x,1,0.567797766,None,794763,1,2023-10-16_12h10.11.535,Sequential learning ,2023.1.3,59.05979918
150,v,28,1,113,1,,,,,344.3179599,345.3028096,345.3028096,345.3028096,345.3028096,345.3205817,346.3033131,346.3033131,v,1,0.840640556,None,794763,1,2023-10-16_12h10.11.535,Sequential learning ,2023.1.3,59.05979918
50,c,28,2,114,2,,,,,347.1808232,348.1703202,348.1703202,348.1703202,348.1703202,348.1873693,349.1705395,349.1705395,c,1,0.844768729,None,794763,1,2023-10-16_12h10.11.535,Sequential learning ,2023.1.3,59.05979918
-150,z,28,3,115,3,,,,,350.0455026,351.03616,351.03616,351.03616,351.03616,351.0540111,352.0372849,352.0372849,z,1,0.899159268,None,794763,1,2023-10-16_12h10.11.535,Sequential learning ,2023.1.3,59.05979918
-50,x,29,0,116,0,,,,,352.961545,353.9535822,353.9535822,353.9535822,353.9535822,353.9705201,354.9535038,354.9535038,x,1,0.73238684,None,794763,1,2023-10-16_12h10.11.535,Sequential learning ,2023.1.3,59.05979918
150,v,29,1,117,1,,,,,355.7128064,356.7050817,356.7050817,356.7050817,356.7050817,356.7214506,357.7048192,357.7048192,v,1,0.824822777,None,794763,1,2023-10-16_12h10.11.535,Sequential learning ,2023.1.3,59.05979918
50,c,29,2,118,2,,,,,358.560425,359.5539383,359.5539383,359.5539383,359.5539383,359.5713625,360.5546719,360.5546719,c,1,0.887500298,None,794763,1,2023-10-16_12h10.11.535,Sequential learning ,2023.1.3,59.05979918
-150,z,29,3,119,3,,,,,361.4763436,362.4714187,362.4714187,362.4714187,362.4714187,362.4881937,363.4716731,363.4716731,z,1,0.811376546,None,794763,1,2023-10-16_12h10.11.535,Sequential learning ,2023.1.3,59.05979918
-50,x,30,0,120,0,,,,,364.3111609,365.3093046,365.3093046,365.3093046,365.3093046,365.3215774,366.3055687,366.3055687,x,1,1.668676954,None,794763,1,2023-10-16_12h10.11.535,Sequential learning ,2023.1.3,59.05979918
150,v,30,1,121,1,,,,,368.0104581,369.0043864,369.0043864,369.0043864,369.0043864,369.0216096,370.0051334,370.0051334,v,1,1.134444768,None,794763,1,2023-10-16_12h10.11.535,Sequential learning ,2023.1.3,59.05979918
50,c,30,2,122,2,,,,,371.1779048,372.1714629,372.1714629,372.1714629,372.1714629,372.1879888,373.1717358,373.1717358,c,1,2.952757025,None,794763,1,2023-10-16_12h10.11.535,Sequential learning ,2023.1.3,59.05979918
-150,z,30,3,123,3,,,,,376.1633797,377.1553487,377.1553487,377.1553487,377.1553487,377.1722809,378.1555015,378.1555015,z,1,1.017766625,None,794763,1,2023-10-16_12h10.11.535,Sequential learning ,2023.1.3,59.05979918
-50,x,31,0,124,0,,,,,379.212408,380.2052022,380.2052022,380.2052022,380.2052022,380.2227808,381.2059828,381.2059828,x,1,0.84927689,None,794763,1,2023-10-16_12h10.11.535,Sequential learning ,2023.1.3,59.05979918
150,v,31,1,125,1,,,,,382.0813747,383.0722063,383.0722063,383.0722063,383.0722063,383.0893132,384.0725998,384.0725998,v,1,1.066390462,None,794763,1,2023-10-16_12h10.11.535,Sequential learning ,2023.1.3,59.05979918
50,c,31,2,126,2,,,,,385.1637395,386.1556092,386.1556092,386.1556092,386.1556092,386.1729569,387.1559088,387.1559088,c,1,0.844806476,None,794763,1,2023-10-16_12h10.11.535,Sequential learning ,2023.1.3,59.05979918
-150,z,31,3,127,3,,,,,388.0293845,389.0223435,389.0223435,389.0223435,389.0223435,389.0399529,390.0237918,390.0237918,z,1,0.81687908,None,794763,1,2023-10-16_12h10.11.535,Sequential learning ,2023.1.3,59.05979918
-50,x,32,0,128,0,,,,,390.8806868,391.8730437,391.8730437,391.8730437,391.8730437,391.8898669,392.8732305,392.8732305,x,1,1.185300981,None,794763,1,2023-10-16_12h10.11.535,Sequential learning ,2023.1.3,59.05979918
150,v,32,1,129,1,,,,,394.0970148,395.0893798,395.0893798,395.0893798,395.0893798,395.1068236,396.0899847,396.0899847,v,1,0.872485508,None,794763,1,2023-10-16_12h10.11.535,Sequential learning ,2023.1.3,59.05979918
50,c,32,2,130,2,,,,,396.9987454,397.9895347,397.9895347,397.9895347,397.9895347,398.0066743,398.9909546,398.9909546,c,1,0.810059434,None,794763,1,2023-10-16_12h10.11.535,Sequential learning ,2023.1.3,59.05979918
-150,z,32,3,131,3,,,,,399.83023,400.8233335,400.8233335,400.8233335,400.8233335,400.8403708,401.8239956,401.8239956,z,1,1.331613392,None,794763,1,2023-10-16_12h10.11.535,Sequential learning ,2023.1.3,59.05979918
-50,x,33,0,132,0,,,,,403.1809309,404.1735254,404.1735254,404.1735254,404.1735254,404.1909124,405.1745787,405.1745787,x,1,1.832992733,None,794763,1,2023-10-16_12h10.11.535,Sequential learning ,2023.1.3,59.05979918
150,v,33,1,133,1,,,,,407.0353884,408.0243558,408.0243558,408.0243558,408.0243558,408.0411417,409.0248466,409.0248466,v,1,1.72465448,None,794763,1,2023-10-16_12h10.11.535,Sequential learning ,2023.1.3,59.05979918
50,c,33,2,134,2,,,,,410.7816939,411.774093,411.774093,411.774093,411.774093,411.7912719,412.7745617,412.7745617,c,1,1.869417647,None,794763,1,2023-10-16_12h10.11.535,Sequential learning ,2023.1.3,59.05979918
-150,z,33,3,135,3,,,,,414.6809165,415.6744618,415.6744618,415.6744618,415.6744618,415.6917929,416.6752836,416.6752836,z,1,2.571834714,None,794763,1,2023-10-16_12h10.11.535,Sequential learning ,2023.1.3,59.05979918
-50,x,34,0,136,0,,,,,419.2824045,420.2750099,420.2750099,420.2750099,420.2750099,420.2917951,421.2756649,421.2756649,x,1,2.634121044,None,794763,1,2023-10-16_12h10.11.535,Sequential learning ,2023.1.3,59.05979918
150,v,34,1,137,1,,,,,423.936196,424.9249194,424.9249194,424.9249194,424.9249194,424.9425207,425.9257681,425.9257681,v,1,0.948339349,None,794763,1,2023-10-16_12h10.11.535,Sequential learning ,2023.1.3,59.05979918
50,c,34,2,138,2,,,,,426.9037045,427.8920531,427.8920531,427.8920531,427.8920531,427.9102803,428.8930541,428.8930541,c,1,1.924798045,None,794763,1,2023-10-16_12h10.11.535,Sequential learning ,2023.1.3,59.05979918
-150,z,34,3,139,3,,,,,430.849848,431.8425957,431.8425957,431.8425957,431.8425957,431.8582494,432.8434023,432.8434023,z,1,2.415860565,None,794763,1,2023-10-16_12h10.11.535,Sequential learning ,2023.1.3,59.05979918
-50,x,35,0,140,0,,,,,435.2844408,436.2760162,436.2760162,436.2760162,436.2760162,436.293193,437.2767124,437.2767124,x,1,1.292920459,None,794763,1,2023-10-16_12h10.11.535,Sequential learning ,2023.1.3,59.05979918
150,v,35,1,141,1,,,,,438.5995724,439.5926191,439.5926191,439.5926191,439.5926191,439.6103008,440.5930254,440.5930254,v,1,1.100483596,None,794763,1,2023-10-16_12h10.11.535,Sequential learning ,2023.1.3,59.05979918
50,c,35,2,142,2,,,,,441.7223785,442.7123833,442.7123833,442.7123833,442.7123833,442.7270452,443.7104424,443.7104424,c,1,2.768128785,None,794763,1,2023-10-16_12h10.11.535,Sequential learning ,2023.1.3,59.05979918
-150,z,35,3,143,3,,,,,446.515342,447.5100866,447.5100866,447.5100866,447.5100866,447.5276549,448.5111706,448.5111706,z,1,0.914808424,None,794763,1,2023-10-16_12h10.11.535,Sequential learning ,2023.1.3,59.05979918
-50,x,36,0,144,0,,,,,449.4528988,450.4434143,450.4434143,450.4434143,450.4434143,450.4605586,451.4443777,451.4443777,x,1,0.704915351,None,794763,1,2023-10-16_12h10.11.535,Sequential learning ,2023.1.3,59.05979918
150,v,36,1,145,1,,,,,452.1830854,453.1767495,453.1767495,453.1767495,453.1767495,453.1940618,454.1774843,454.1774843,v,1,1.867039585,None,794763,1,2023-10-16_12h10.11.535,Sequential learning ,2023.1.3,59.05979918
50,c,36,2,146,2,,,,,456.0699888,457.0601957,457.0601957,457.0601957,457.0601957,457.0776078,458.0609494,458.0609494,c,1,0.836182861,None,794763,1,2023-10-16_12h10.11.535,Sequential learning ,2023.1.3,59.05979918
-150,z,36,3,147,3,,,,,458.9344821,459.9278156,459.9278156,459.9278156,459.9278156,459.9445564,460.9287052,460.9287052,z,1,0.880870807,None,794763,1,2023-10-16_12h10.11.535,Sequential learning ,2023.1.3,59.05979918
-50,x,37,0,148,0,,,,,461.8357878,462.827805,462.827805,462.827805,462.827805,462.844876,463.8286045,463.8286045,x,1,1.889165306,None,794763,1,2023-10-16_12h10.11.535,Sequential learning ,2023.1.3,59.05979918
150,v,37,1,149,1,,,,,465.7518545,466.7448998,466.7448998,466.7448998,466.7448998,466.7615288,467.7453723,467.7453723,v,1,1.434102491,None,794763,1,2023-10-16_12h10.11.535,Sequential learning ,2023.1.3,59.05979918
50,c,37,2,150,2,,,,,469.2042361,470.1948355,470.1948355,470.1948355,470.1948355,470.2123845,471.1949297,471.1949297,c,1,0.821653107,None,794763,1,2023-10-16_12h10.11.535,Sequential learning ,2023.1.3,59.05979918
-150,z,37,3,151,3,,,,,472.05005,473.0445409,473.0445409,473.0445409,473.0445409,473.0628392,474.0460119,474.0460119,z,1,0.775797293,None,794763,1,2023-10-16_12h10.11.535,Sequential learning ,2023.1.3,59.05979918
-50,x,38,0,152,0,,,,,474.8517871,475.8452851,475.8452851,475.8452851,475.8452851,475.8626816,476.8450846,476.8450846,x,1,0.952287033,None,794763,1,2023-10-16_12h10.11.535,Sequential learning ,2023.1.3,59.05979918
150,v,38,1,153,1,,,,,477.8362122,478.8285989,478.8285989,478.8285989,478.8285989,478.8463227,479.829855,479.829855,v,1,2.701312017,None,794763,1,2023-10-16_12h10.11.535,Sequential learning ,2023.1.3,59.05979918
50,c,38,2,154,2,,,,,482.567596,483.5624093,483.5624093,483.5624093,483.5624093,483.5796443,484.5625309,484.5625309,c,1,15.56375495,None,794763,1,2023-10-16_12h10.11.535,Sequential learning ,2023.1.3,59.05979918
-150,z,38,3,155,3,,,,,500.1548732,501.1470167,501.1470167,501.1470167,501.1470167,501.1641959,502.1472478,502.1472478,z,1,0.783653062,None,794763,1,2023-10-16_12h10.11.535,Sequential learning ,2023.1.3,59.05979918
-50,x,39,0,156,0,,,,,502.9558825,503.9468458,503.9468458,503.9468458,503.9468458,503.9642039,504.9480666,504.9480666,x,1,2.066394954,None,794763,1,2023-10-16_12h10.11.535,Sequential learning ,2023.1.3,59.05979918
150,v,39,1,157,1,,,,,507.042787,508.0306697,508.0306697,508.0306697,508.0306697,508.0480035,509.0311684,509.0311684,v,1,0.787423159,None,794763,1,2023-10-16_12h10.11.535,Sequential learning ,2023.1.3,59.05979918
50,c,39,2,158,2,,,,,509.8528127,510.8474117,510.8474117,510.8474117,510.8474117,510.8644934,511.8484854,511.8484854,c,1,1.32560664,None,794763,1,2023-10-16_12h10.11.535,Sequential learning ,2023.1.3,59.05979918
-150,z,39,3,159,3,,,,,513.2054141,514.1979478,514.1979478,514.1979478,514.1979478,514.2148793,515.1988667,515.1988667,z,1,1.167970482,None,794763,1,2023-10-16_12h10.11.535,Sequential learning ,2023.1.3,59.05979918
-50,x,40,0,160,0,,,,,516.4039189,517.3978992,517.3978992,517.3978992,517.3978992,517.415509,518.3988184,518.3988184,x,1,0.885055587,None,794763,1,2023-10-16_12h10.11.535,Sequential learning ,2023.1.3,59.05979918
150,v,40,1,161,1,,,,,519.3189288,520.3153592,520.3153592,520.3153592,520.3153592,520.331915,521.3157757,521.3157757,v,1,0.851979561,None,794763,1,2023-10-16_12h10.11.535,Sequential learning ,2023.1.3,59.05979918
50,c,40,2,162,2,,,,,522.2043304,523.1988059,523.1988059,523.1988059,523.1988059,523.2154777,524.1992569,524.1992569,c,1,1.258831699,None,794763,1,2023-10-16_12h10.11.535,Sequential learning ,2023.1.3,59.05979918
-150,z,40,3,163,3,,,,,525.4888329,526.4821448,526.4821448,526.4821448,526.4821448,526.4994416,527.4826438,527.4826438,z,1,1.376089495,None,794763,1,2023-10-16_12h10.11.535,Sequential learning ,2023.1.3,59.05979918
-50,x,41,0,164,0,,,,,528.8899883,529.8831056,529.8831056,529.8831056,529.8831056,529.9000069,530.8834397,530.8834397,x,1,2.243198249,None,794763,1,2023-10-16_12h10.11.535,Sequential learning ,2023.1.3,59.05979918
150,v,41,1,165,1,,,,,533.1563686,534.1491574,534.1491574,534.1491574,534.1491574,534.1661449,535.1496484,535.1496484,v,1,1.607685659,None,794763,1,2023-10-16_12h10.11.535,Sequential learning ,2023.1.3,59.05979918
50,c,41,2,166,2,,,,,536.7900726,537.7827745,537.7827745,537.7827745,537.7827745,537.8001441,538.7832258,538.7832258,c,1,1.051519281,None,794763,1,2023-10-16_12h10.11.535,Sequential learning ,2023.1.3,59.05979918
-150,z,41,3,167,3,,,,,539.8713681,540.8663667,540.8663667,540.8663667,540.8663667,540.8839317,541.8669553,541.8669553,z,1,0.852878768,None,794763,1,2023-10-16_12h10.11.535,Sequential learning ,2023.1.3,59.05979918
-50,x,42,0,168,0,,,,,542.7569971,543.750659,543.750659,543.750659,543.750659,543.7676278,544.750592,544.750592,x,1,1.103033145,None,794763,1,2023-10-16_12h10.11.535,Sequential learning ,2023.1.3,59.05979918
150,v,42,1,169,1,,,,,545.887968,546.8850659,546.8850659,546.8850659,546.8850659,546.9000466,547.884606,547.884606,v,1,7.46756843,None,794763,1,2023-10-16_12h10.11.535,Sequential learning ,2023.1.3,59.05979918
50,c,42,2,170,2,,,,,555.3897068,556.3838097,556.3838097,556.3838097,556.3838097,556.4019968,557.3838856,557.3838856,c,1,0.742909178,None,794763,1,2023-10-16_12h10.11.535,Sequential learning ,2023.1.3,59.05979918
-150,z,42,3,171,3,,,,,558.1576099,559.1509374,559.1509374,559.1509374,559.1509374,559.168196,560.1514236,560.1514236,z,1,0.884705666,None,794763,1,2023-10-16_12h10.11.535,Sequential learning ,2023.1.3,59.05979918
-50,x,43,0,172,0,,,,,561.072469,562.0676919,562.0676919,562.0676919,562.0676919,562.0843155,563.068454,563.068454,x,1,0.767584406,None,794763,1,2023-10-16_12h10.11.535,Sequential learning ,2023.1.3,59.05979918
150,v,43,1,173,1,,,,,563.8730913,564.8687406,564.8687406,564.8687406,564.8687406,564.8855505,565.8684753,565.8684753,v,1,1.155690067,None,794763,1,2023-10-16_12h10.11.535,Sequential learning ,2023.1.3,59.05979918
50,c,43,2,174,2,,,,,567.0613256,568.0514608,568.0514608,568.0514608,568.0514608,568.068139,569.0525989,569.0525989,c,1,0.936683475,None,794763,1,2023-10-16_12h10.11.535,Sequential learning ,2023.1.3,59.05979918
-150,z,43,3,175,3,,,,,570.0242502,571.0182546,571.0182546,571.0182546,571.0182546,571.0358945,572.0188201,572.0188201,z,1,2.734396578,None,794763,1,2023-10-16_12h10.11.535,Sequential learning ,2023.1.3,59.05979918
-50,x,44,0,176,0,,,,,574.7778191,575.7682902,575.7682902,575.7682902,575.7682902,575.7859577,576.7695253,576.7695253,x,1,1.151184281,None,794763,1,2023-10-16_12h10.11.535,Sequential learning ,2023.1.3,59.05979918
150,v,44,1,177,1,,,,,577.9569331,578.9524721,578.9524721,578.9524721,578.9524721,578.9695478,579.953206,579.953206,v,1,0.876231007,None,794763,1,2023-10-16_12h10.11.535,Sequential learning ,2023.1.3,59.05979918
50,c,44,2,178,2,,,,,580.8604439,581.8531043,581.8531043,581.8531043,581.8531043,581.8704416,582.853197,582.853197,c,1,0.851559378,None,794763,1,2023-10-16_12h10.11.535,Sequential learning ,2023.1.3,59.05979918
-150,z,44,3,179,3,,,,,583.7419078,584.7360549,584.7360549,584.7360549,584.7360549,584.7530346,585.7364897,585.7364897,z,1,0.721443182,None,794763,1,2023-10-16_12h10.11.535,Sequential learning ,2023.1.3,59.05979918
-50,x,45,0,180,0,,,,,586.4947942,587.486569,587.486569,587.486569,587.486569,587.5031438,588.4870906,588.4870906,x,1,0.643755561,None,794763,1,2023-10-16_12h10.11.535,Sequential learning ,2023.1.3,59.05979918
150,v,45,1,181,1,,,,,589.160078,590.1532853,590.1532853,590.1532853,590.1532853,590.1699951,591.154426,591.154426,v,1,0.96593458,None,794763,1,2023-10-16_12h10.11.535,Sequential learning ,2023.1.3,59.05979918
50,c,45,2,182,2,,,,,592.1445268,593.1368561,593.1368561,593.1368561,593.1368561,593.1542557,594.1367036,594.1367036,c,1,1.169771666,None,794763,1,2023-10-16_12h10.11.535,Sequential learning ,2023.1.3,59.05979918
-150,z,45,3,183,3,,,,,595.3427795,596.3364784,596.3364784,596.3364784,596.3364784,596.3542936,597.3376517,597.3376517,z,1,1.639003122,None,794763,1,2023-10-16_12h10.11.535,Sequential learning ,2023.1.3,59.05979918
-50,x,46,0,184,0,,,,,599.0090984,600.0034944,600.0034944,600.0034944,600.0034944,600.0207974,601.0046546,601.0046546,x,1,2.709734984,None,794763,1,2023-10-16_12h10.11.535,Sequential learning ,2023.1.3,59.05979918
150,v,46,1,185,1,,,,,603.7454542,604.738127,604.738127,604.738127,604.738127,604.7552892,605.7385529,605.7385529,v,1,1.105006944,None,794763,1,2023-10-16_12h10.11.535,Sequential learning ,2023.1.3,59.05979918
50,c,46,2,186,2,,,,,606.8806651,607.8711405,607.8711405,607.8711405,607.8711405,607.8886907,608.8717679,608.8717679,c,1,0.653522388,None,794763,1,2023-10-16_12h10.11.535,Sequential learning ,2023.1.3,59.05979918
-150,z,46,3,187,3,,,,,609.5630988,610.5546651,610.5546651,610.5546651,610.5546651,610.5713834,611.5547268,611.5547268,z,1,7.36247524,None,794763,1,2023-10-16_12h10.11.535,Sequential learning ,2023.1.3,59.05979918
-50,x,47,0,188,0,,,,,618.9479324,619.9389004,619.9389004,619.9389004,619.9389004,619.9554805,620.9390506,620.9390506,x,1,0.84576159,None,794763,1,2023-10-16_12h10.11.535,Sequential learning ,2023.1.3,59.05979918
150,v,47,1,189,1,,,,,621.8129859,622.8049744,622.8049744,622.8049744,622.8049744,622.8229356,623.8057939,623.8057939,v,1,1.110597988,None,794763,1,2023-10-16_12h10.11.535,Sequential learning ,2023.1.3,59.05979918
50,c,47,2,190,2,,,,,624.9458293,625.9385875,625.9385875,625.9385875,625.9385875,625.9560328,626.93927,626.93927,c,1,2.265583687,None,794763,1,2023-10-16_12h10.11.535,Sequential learning ,2023.1.3,59.05979918
-150,z,47,3,191,3,,,,,629.2301262,630.2223823,630.2223823,630.2223823,630.2223823,630.2399646,631.2233276,631.2233276,z,1,2.66768341,None,794763,1,2023-10-16_12h10.11.535,Sequential learning ,2023.1.3,59.05979918
-50,x,48,0,192,0,,,,,633.9261899,634.922547,634.922547,634.922547,634.922547,634.9396283,635.9231855,635.9231855,x,1,1.70201657,None,794763,1,2023-10-16_12h10.11.535,Sequential learning ,2023.1.3,59.05979918
150,v,48,1,193,1,,,,,637.6640055,638.6572202,638.6572202,638.6572202,638.6572202,638.674173,639.6575635,639.6575635,v,1,1.347804213,None,794763,1,2023-10-16_12h10.11.535,Sequential learning ,2023.1.3,59.05979918
50,c,48,2,194,2,,,,,641.0324493,642.0228458,642.0228458,642.0228458,642.0228458,642.0400594,643.02465,643.02465,c,1,0.748371802,None,794763,1,2023-10-16_12h10.11.535,Sequential learning ,2023.1.3,59.05979918
-150,z,48,3,195,3,,,,,643.8140246,644.8069147,644.8069147,644.8069147,644.8069147,644.8242759,645.807194,645.807194,z,1,1.083660452,None,794763,1,2023-10-16_12h10.11.535,Sequential learning ,2023.1.3,59.05979918
-50,x,49,0,196,0,,,,,646.9157221,647.907445,647.907445,647.907445,647.907445,647.9243046,648.9074284,648.9074284,x,1,0.823158292,None,794763,1,2023-10-16_12h10.11.535,Sequential learning ,2023.1.3,59.05979918
150,v,49,1,197,1,,,,,649.7632966,650.7580163,650.7580163,650.7580163,650.7580163,650.7747566,651.7583113,651.7583113,v,1,0.800676576,None,794763,1,2023-10-16_12h10.11.535,Sequential learning ,2023.1.3,59.05979918
50,c,49,2,198,2,,,,,652.5970175,653.5910103,653.5910103,653.5910103,653.5910103,653.6083723,654.5915799,654.5915799,c,1,1.372604369,None,794763,1,2023-10-16_12h10.11.535,Sequential learning ,2023.1.3,59.05979918
-150,z,49,3,199,3,,,,,655.9981638,656.991844,656.991844,656.991844,656.991844,657.0088849,657.9918005,657.9918005,z,1,1.288029807,None,794763,1,2023-10-16_12h10.11.535,Sequential learning ,2023.1.3,59.05979918
-50,x,50,0,200,0,,,,,659.3142345,660.3075324,660.3075324,660.3075324,660.3075324,660.3253331,661.3080311,661.3080311,x,1,1.10813922,None,794763,1,2023-10-16_12h10.11.535,Sequential learning ,2023.1.3,59.05979918
150,v,50,1,201,1,,,,,662.4492487,663.4413808,663.4413808,663.4413808,663.4413808,663.4589419,664.4424203,664.4424203,v,1,1.808899151,None,794763,1,2023-10-16_12h10.11.535,Sequential learning ,2023.1.3,59.05979918
50,c,50,2,202,2,,,,,666.2819658,667.2750312,667.2750312,667.2750312,667.2750312,667.2919579,668.275483,668.275483,c,1,0.743579518,None,794763,1,2023-10-16_12h10.11.535,Sequential learning ,2023.1.3,59.05979918
-150,z,50,3,203,3,,,,,669.0489285,670.0419378,670.0419378,670.0419378,670.0419378,670.05961,671.0428375,671.0428375,z,1,1.025768335,None,794763,1,2023-10-16_12h10.11.535,Sequential learning ,2023.1.3,59.05979918
-50,x,51,0,204,0,,,,,672.0991703,673.0921399,673.0921399,673.0921399,673.0921399,673.1092136,674.093169,674.093169,x,1,0.890474726,None,794763,1,2023-10-16_12h10.11.535,Sequential learning ,2023.1.3,59.05979918
150,v,51,1,205,1,,,,,675.0163055,676.0087857,676.0087857,676.0087857,676.0087857,676.0267826,677.0099852,677.0099852,v,1,1.18876021,None,794763,1,2023-10-16_12h10.11.535,Sequential learning ,2023.1.3,59.05979918
50,c,51,2,206,2,,,,,678.2325875,679.2256735,679.2256735,679.2256735,679.2256735,679.2434191,680.2269772,680.2269772,c,1,1.092256006,None,794763,1,2023-10-16_12h10.11.535,Sequential learning ,2023.1.3,59.05979918
-150,z,51,3,207,3,,,,,681.351408,682.3426158,682.3426158,682.3426158,682.3426158,682.3603431,683.3433407,683.3433407,z,1,2.788687221,None,794763,1,2023-10-16_12h10.11.535,Sequential learning ,2023.1.3,59.05979918
-50,x,52,0,208,0,,,,,686.1670433,687.1598597,687.1598597,687.1598597,687.1598597,687.1769577,688.1609463,688.1609463,x,1,15.58746403,None,794763,1,2023-10-16_12h10.11.535,Sequential learning ,2023.1.3,59.05979918
150,v,52,1,209,1,,,,,703.7833518,704.7775602,704.7775602,704.7775602,704.7775602,704.7953553,705.7783816,705.7783816,v,1,1.073036133,None,794763,1,2023-10-16_12h10.11.535,Sequential learning ,2023.1.3,59.05979918
50,c,52,2,210,2,,,,,706.8853277,707.8776325,707.8776325,707.8776325,707.8776325,707.8954877,708.878684,708.878684,c,1,0.753990881,None,794763,1,2023-10-16_12h10.11.535,Sequential learning ,2023.1.3,59.05979918
-150,z,52,3,211,3,,,,,709.6673236,710.6618796,710.6618796,710.6618796,710.6618796,710.6783116,711.6625555,711.6625555,z,1,0.876847158,None,794763,1,2023-10-16_12h10.11.535,Sequential learning ,2023.1.3,59.05979918
-50,x,53,0,212,0,,,,,712.56816,713.561595,713.561595,713.561595,713.561595,713.5787762,714.5619638,714.5619638,x,1,0.887919561,None,794763,1,2023-10-16_12h10.11.535,Sequential learning ,2023.1.3,59.05979918
150,v,53,1,213,1,,,,,715.483727,716.4783456,716.4783456,716.4783456,716.4783456,716.4955189,717.4795853,717.4795853,v,1,1.968663301,None,794763,1,2023-10-16_12h10.11.535,Sequential learning ,2023.1.3,59.05979918
50,c,53,2,214,2,,,,,719.4859173,720.4789019,720.4789019,720.4789019,720.4789019,720.4958496,721.4793316,721.4793316,c,1,0.793311232,None,794763,1,2023-10-16_12h10.11.535,Sequential learning ,2023.1.3,59.05979918
-150,z,53,3,215,3,,,,,722.3019904,723.2958202,723.2958202,723.2958202,723.2958202,723.3130488,724.2966241,724.2966241,z,1,0.741874858,None,794763,1,2023-10-16_12h10.11.535,Sequential learning ,2023.1.3,59.05979918
-50,x,54,0,216,0,,,,,725.0700381,726.0629539,726.0629539,726.0629539,726.0629539,726.0799507,727.0633477,727.0633477,x,1,0.844314899,None,794763,1,2023-10-16_12h10.11.535,Sequential learning ,2023.1.3,59.05979918
150,v,54,1,217,1,,,,,727.936182,728.9293099,728.9293099,728.9293099,728.9293099,728.9473224,729.9302963,729.9302963,v,1,0.987417693,None,794763,1,2023-10-16_12h10.11.535,Sequential learning ,2023.1.3,59.05979918
50,c,54,2,218,2,,,,,730.9531945,731.9460034,731.9460034,731.9460034,731.9460034,731.9635281,732.947213,732.947213,c,1,0.708494091,None,794763,1,2023-10-16_12h10.11.535,Sequential learning ,2023.1.3,59.05979918
-150,z,54,3,219,3,,,,,733.6870374,734.679985,734.679985,734.679985,734.679985,734.6967013,735.6805604,735.6805604,z,1,0.741358052,None,794763,1,2023-10-16_12h10.11.535,Sequential learning ,2023.1.3,59.05979918
-50,x,55,0,220,0,,,,,736.4523111,737.4465534,737.4465534,737.4465534,737.4465534,737.463607,738.4475576,738.4475576,x,1,0.837450259,None,794763,1,2023-10-16_12h10.11.535,Sequential learning ,2023.1.3,59.05979918
150,v,55,1,221,1,,,,,739.3194313,740.3138336,740.3138336,740.3138336,740.3138336,740.3310067,741.3139285,741.3139285,v,1,0.978839061,None,794763,1,2023-10-16_12h10.11.535,Sequential learning ,2023.1.3,59.05979918
50,c,55,2,222,2,,,,,742.3214258,743.3135564,743.3135564,743.3135564,743.3135564,743.3310371,744.3142068,744.3142068,c,1,0.866583662,None,794763,1,2023-10-16_12h10.11.535,Sequential learning ,2023.1.3,59.05979918
-150,z,55,3,223,3,,,,,745.2051356,746.1968585,746.1968585,746.1968585,746.1968585,746.2152434,747.198078,747.198078,z,1,0.683334931,None,794763,1,2023-10-16_12h10.11.535,Sequential learning ,2023.1.3,59.05979918
-50,x,56,0,224,0,,,,,747.9054292,748.8969908,748.8969908,748.8969908,748.8969908,748.9147379,749.8982649,749.8982649,x,1,0.603532007,None,794763,1,2023-10-16_12h10.11.535,Sequential learning ,2023.1.3,59.05979918
150,v,56,1,225,1,,,,,750.5362076,751.5307826,751.5307826,751.5307826,751.5307826,751.5484546,752.5317149,752.5317149,v,1,1.094252661,None,794763,1,2023-10-16_12h10.11.535,Sequential learning ,2023.1.3,59.05979918
50,c,56,2,226,2,,,,,753.6550016,754.6473012,754.6473012,754.6473012,754.6473012,754.6652228,755.6483912,755.6483912,c,1,0.78089093,None,794763,1,2023-10-16_12h10.11.535,Sequential learning ,2023.1.3,59.05979918
-150,z,56,3,227,3,,,,,756.4557052,757.4484848,757.4484848,757.4484848,757.4484848,757.4649827,758.4483595,758.4483595,z,1,0.794487474,None,794763,1,2023-10-16_12h10.11.535,Sequential learning ,2023.1.3,59.05979918
-50,x,57,0,228,0,,,,,759.2718418,760.2653262,760.2653262,760.2653262,760.2653262,760.2823215,761.2657297,761.2657297,x,1,0.635876342,None,794763,1,2023-10-16_12h10.11.535,Sequential learning ,2023.1.3,59.05979918
150,v,57,1,229,1,,,,,761.9357456,762.9314996,762.9314996,762.9314996,762.9314996,762.9488223,763.9328645,763.9328645,v,1,0.887300481,None,794763,1,2023-10-16_12h10.11.535,Sequential learning ,2023.1.3,59.05979918
50,c,57,2,230,2,,,,,764.8555318,765.848924,765.848924,765.848924,765.848924,765.8653811,766.8497579,766.8497579,c,1,0.741434068,None,794763,1,2023-10-16_12h10.11.535,Sequential learning ,2023.1.3,59.05979918
-150,z,57,3,231,3,,,,,767.6224047,768.6157645,768.6157645,768.6157645,768.6157645,768.6329216,769.6164364,769.6164364,z,1,1.02040773,None,794763,1,2023-10-16_12h10.11.535,Sequential learning ,2023.1.3,59.05979918
-50,x,58,0,232,0,,,,,770.6702578,771.6662217,771.6662217,771.6662217,771.6662217,771.682877,772.6666172,772.6666172,x,1,0.641412101,None,794763,1,2023-10-16_12h10.11.535,Sequential learning ,2023.1.3,59.05979918
150,v,58,1,233,1,,,,,773.3385035,774.3320675,774.3320675,774.3320675,774.3320675,774.3491807,775.3336943,775.3336943,v,1,0.771782969,None,794763,1,2023-10-16_12h10.11.535,Sequential learning ,2023.1.3,59.05979918
50,c,58,2,234,2,,,,,776.1393373,777.1324572,777.1324572,777.1324572,777.1324572,777.1498658,778.1333786,778.1333786,c,1,0.73030896,None,794763,1,2023-10-16_12h10.11.535,Sequential learning ,2023.1.3,59.05979918
-150,z,58,3,235,3,,,,,778.8902547,779.8831954,779.8831954,779.8831954,779.8831954,779.9003201,780.8832934,780.8832934,z,1,0.790748091,None,794763,1,2023-10-16_12h10.11.535,Sequential learning ,2023.1.3,59.05979918
-50,x,59,0,236,0,,,,,781.7060946,782.699977,782.699977,782.699977,782.699977,782.7173245,783.7005427,783.7005427,x,1,0.734943323,None,794763,1,2023-10-16_12h10.11.535,Sequential learning ,2023.1.3,59.05979918
150,v,59,1,237,1,,,,,784.4718314,785.4666751,785.4666751,785.4666751,785.4666751,785.4836254,786.4669316,786.4669316,v,1,1.56873071,None,794763,1,2023-10-16_12h10.11.535,Sequential learning ,2023.1.3,59.05979918
50,c,59,2,238,2,,,,,788.0729546,789.0665744,789.0665744,789.0665744,789.0665744,789.0843285,790.0673274,790.0673274,c,1,0.615734791,None,794763,1,2023-10-16_12h10.11.535,Sequential learning ,2023.1.3,59.05979918
-150,z,59,3,239,3,,,,,790.708455,791.7003495,791.7003495,791.7003495,791.7003495,791.7179585,792.7013276,792.7013276,z,1,1.08938212,None,794763,1,2023-10-16_12h10.11.535,Sequential learning ,2023.1.3,59.05979918
-50,x,60,0,240,0,,,,,793.8240652,794.817885,794.817885,794.817885,794.817885,794.8347501,795.8177895,795.8177895,x,1,1.189600505,None,794763,1,2023-10-16_12h10.11.535,Sequential learning ,2023.1.3,59.05979918
150,v,60,1,241,1,,,,,797.0408938,798.0338922,798.0338922,798.0338922,798.0338922,798.0514514,799.0347095,799.0347095,v,1,0.701858338,None,794763,1,2023-10-16_12h10.11.535,Sequential learning ,2023.1.3,59.05979918
50,c,60,2,242,2,,,,,799.7740234,800.7678845,800.7678845,800.7678845,800.7678845,800.7852344,801.768614,801.768614,c,1,1.419783728,None,794763,1,2023-10-16_12h10.11.535,Sequential learning ,2023.1.3,59.05979918
-150,z,60,3,243,3,,,,,803.2220159,804.2181054,804.2181054,804.2181054,804.2181054,804.2356126,805.2188168,805.2188168,z,1,0.975680357,None,794763,1,2023-10-16_12h10.11.535,Sequential learning ,2023.1.3,59.05979918
-50,x,61,0,244,0,,,,,806.2251589,807.218936,807.218936,807.218936,807.218936,807.2357346,808.2189453,808.2189453,x,1,0.309666931,None,794763,1,2023-10-16_12h10.11.535,Sequential learning ,2023.1.3,59.05979918
150,v,61,1,245,1,,,,,808.5590679,809.5516364,809.5516364,809.5516364,809.5516364,809.5687752,810.5520895,810.5520895,v,1,4.443946574,None,794763,1,2023-10-16_12h10.11.535,Sequential learning ,2023.1.3,59.05979918
50,c,61,2,246,2,,,,,815.0260015,816.0188886,816.0188886,816.0188886,816.0188886,816.0368311,817.0196733,817.0196733,c,1,0.917407289,None,794763,1,2023-10-16_12h10.11.535,Sequential learning ,2023.1.3,59.05979918
-150,z,61,3,247,3,,,,,817.9725761,818.9691784,818.9691784,818.9691784,818.9691784,818.9861486,819.9698177,819.9698177,z,1,0.777792543,None,794763,1,2023-10-16_12h10.11.535,Sequential learning ,2023.1.3,59.05979918
-50,x,62,0,248,0,,,,,820.77622,821.7696077,821.7696077,821.7696077,821.7696077,821.7864477,822.7703959,822.7703959,x,1,0.758961013,None,794763,1,2023-10-16_12h10.11.535,Sequential learning ,2023.1.3,59.05979918
150,v,62,1,249,1,,,,,823.5763074,824.5845502,824.5845502,824.5845502,824.5845502,824.6030585,825.5696036,825.5696036,v,1,1.586063161,None,794763,1,2023-10-16_12h10.11.535,Sequential learning ,2023.1.3,59.05979918
50,c,62,2,250,2,,,,,827.1931452,828.1861873,828.1861873,828.1861873,828.1861873,828.2033913,829.1874826,829.1874826,c,1,0.80167003,None,794763,1,2023-10-16_12h10.11.535,Sequential learning ,2023.1.3,59.05979918
-150,z,62,3,251,3,,,,,830.0251304,831.0213112,831.0213112,831.0213112,831.0213112,831.0364746,832.0205025,832.0205025,z,1,0.894804876,None,794763,1,2023-10-16_12h10.11.535,Sequential learning ,2023.1.3,59.05979918
-50,x,63,0,252,0,,,,,832.944627,833.9364231,833.9364231,833.9364231,833.9364231,833.9535368,834.9364238,834.9364238,x,1,0.582585624,None,794763,1,2023-10-16_12h10.11.535,Sequential learning ,2023.1.3,59.05979918
150,v,63,1,253,1,,,,,835.5446466,836.5371667,836.5371667,836.5371667,836.5371667,836.5542464,837.5379566,837.5379566,v,1,0.775098427,None,794763,1,2023-10-16_12h10.11.535,Sequential learning ,2023.1.3,59.05979918
50,c,63,2,254,2,,,,,838.3436154,839.3367253,839.3367253,839.3367253,839.3367253,839.3545129,840.3376364,840.3376364,c,1,1.237252198,None,794763,1,2023-10-16_12h10.11.535,Sequential learning ,2023.1.3,59.05979918
-150,z,63,3,255,3,,,,,841.6114873,842.6038373,842.6038373,842.6038373,842.6038373,842.6212595,843.611715,843.611715,z,1,0.743247992,None,794763,1,2023-10-16_12h10.11.535,Sequential learning ,2023.1.3,59.05979918
-50,x,64,0,256,0,,,,,844.3912716,845.3887556,845.3887556,845.3887556,845.3887556,845.4042785,846.3880556,846.3880556,x,1,0.799302101,None,794763,1,2023-10-16_12h10.11.535,Sequential learning ,2023.1.3,59.05979918
150,v,64,1,257,1,,,,,847.2126197,848.2044095,848.2044095,848.2044095,848.2044095,848.2214335,849.2042594,849.2042594,v,1,0.881934586,None,794763,1,2023-10-16_12h10.11.535,Sequential learning ,2023.1.3,59.05979918
50,c,64,2,258,2,,,,,850.1124417,851.104236,851.104236,851.104236,851.104236,851.1214209,852.1048219,852.1048219,c,1,0.791949275,None,794763,1,2023-10-16_12h10.11.535,Sequential learning ,2023.1.3,59.05979918
-150,z,64,3,259,3,,,,,852.9283235,853.9214051,853.9214051,853.9214051,853.9214051,853.9384386,854.9223385,854.9223385,z,1,0.875687629,None,794763,1,2023-10-16_12h10.11.535,Sequential learning ,2023.1.3,59.05979918
-50,x,65,0,260,0,,,,,855.8283085,856.8216199,856.8216199,856.8216199,856.8216199,856.8387152,857.8224603,857.8224603,x,1,1.58789911,None,794763,1,2023-10-16_12h10.11.535,Sequential learning ,2023.1.3,59.05979918
150,v,65,1,261,1,,,,,859.4447766,860.4382084,860.4382084,860.4382084,860.4382084,860.4555693,861.4389691,861.4389691,v,1,2.844731731,None,794763,1,2023-10-16_12h10.11.535,Sequential learning ,2023.1.3,59.05979918
50,c,65,2,262,2,,,,,864.312552,865.3056512,865.3056512,865.3056512,865.3056512,865.3223869,866.3058813,866.3058813,c,1,1.326092321,None,794763,1,2023-10-16_12h10.11.535,Sequential learning ,2023.1.3,59.05979918
-150,z,65,3,263,3,,,,,867.6641654,868.660581,868.660581,868.660581,868.660581,868.6723433,869.6562641,869.6562641,z,1,0.677760934,None,794763,1,2023-10-16_12h10.11.535,Sequential learning ,2023.1.3,59.05979918
-50,x,66,0,264,0,,,,,870.3636271,871.3562885,871.3562885,871.3562885,871.3562885,871.3732744,872.3566232,872.3566232,x,1,0.848620616,None,794763,1,2023-10-16_12h10.11.535,Sequential learning ,2023.1.3,59.05979918
150,v,66,1,265,1,,,,,873.2324091,874.2232282,874.2232282,874.2232282,874.2232282,874.2398707,875.2231997,875.2231997,v,1,1.610786881,None,794763,1,2023-10-16_12h10.11.535,Sequential learning ,2023.1.3,59.05979918
50,c,66,2,266,2,,,,,876.8631741,877.8577162,877.8577162,877.8577162,877.8577162,877.8732681,878.8570929,878.8570929,c,1,0.76776592,None,794763,1,2023-10-16_12h10.11.535,Sequential learning ,2023.1.3,59.05979918
-150,z,66,3,267,3,,,,,879.6615817,880.6572292,880.6572292,880.6572292,880.6572292,880.6736041,881.6572485,881.6572485,z,1,0.948425349,None,794763,1,2023-10-16_12h10.11.535,Sequential learning ,2023.1.3,59.05979918
-50,x,67,0,268,0,,,,,882.6316909,883.6236891,883.6236891,883.6236891,883.6236891,883.6406904,884.6241307,884.6241307,x,1,1.060957294,None,794763,1,2023-10-16_12h10.11.535,Sequential learning ,2023.1.3,59.05979918
150,v,67,1,269,1,,,,,885.7155487,886.7067898,886.7067898,886.7067898,886.7067898,886.7244624,887.707583,887.707583,v,1,0.818972675,None,794763,1,2023-10-16_12h10.11.535,Sequential learning ,2023.1.3,59.05979918
50,c,67,2,270,2,,,,,888.5634176,889.5570998,889.5570998,889.5570998,889.5570998,889.5747096,890.5572343,890.5572343,c,1,0.801891588,None,794763,1,2023-10-16_12h10.11.535,Sequential learning ,2023.1.3,59.05979918
-150,z,67,3,271,3,,,,,891.3972894,892.3914182,892.3914182,892.3914182,892.3914182,892.4085381,893.3915632,893.3915632,z,1,1.075848913,None,794763,1,2023-10-16_12h10.11.535,Sequential learning ,2023.1.3,59.05979918
-50,x,68,0,272,0,,,,,894.4975195,895.4906532,895.4906532,895.4906532,895.4906532,895.5083684,896.4913782,896.4913782,x,1,1.640194065,None,794763,1,2023-10-16_12h10.11.535,Sequential learning ,2023.1.3,59.05979918
150,v,68,1,273,1,,,,,898.1652823,899.1581432,899.1581432,899.1581432,899.1581432,899.1752124,900.1581629,900.1581629,v,1,0.792194476,None,794763,1,2023-10-16_12h10.11.535,Sequential learning ,2023.1.3,59.05979918
50,c,68,2,274,2,,,,,900.9819861,901.9751561,901.9751561,901.9751561,901.9751561,901.9924915,902.9750015,902.9750015,c,1,1.148622847,None,794763,1,2023-10-16_12h10.11.535,Sequential learning ,2023.1.3,59.05979918
-150,z,68,3,275,3,,,,,904.1504644,905.1418431,905.1418431,905.1418431,905.1418431,905.1585953,906.1420203,906.1420203,z,1,0.922275198,None,794763,1,2023-10-16_12h10.11.535,Sequential learning ,2023.1.3,59.05979918
-50,x,69,0,276,0,,,,,907.0990427,908.0915698,908.0915698,908.0915698,908.0915698,908.1088646,909.0921385,909.0921385,x,1,0.575781395,None,794763,1,2023-10-16_12h10.11.535,Sequential learning ,2023.1.3,59.05979918
150,v,69,1,277,1,,,,,909.6988445,910.6923194,910.6923194,910.6923194,910.6923194,910.7096115,911.6924279,911.6924279,v,1,1.111231834,None,794763,1,2023-10-16_12h10.11.535,Sequential learning ,2023.1.3,59.05979918
50,c,69,2,278,2,,,,,912.8325539,913.8252465,913.8252465,913.8252465,913.8252465,913.8424623,914.8255204,914.8255204,c,1,2.293402582,None,794763,1,2023-10-16_12h10.11.535,Sequential learning ,2023.1.3,59.05979918
-150,z,69,3,279,3,,,,,917.1493619,918.1420275,918.1420275,918.1420275,918.1420275,918.1598443,919.1427064,919.1427064,z,1,1.305615135,None,794763,1,2023-10-16_12h10.11.535,Sequential learning ,2023.1.3,59.05979918
-50,x,70,0,280,0,,,,,920.4821144,921.4758508,921.4758508,921.4758508,921.4758508,921.492648,922.4763858,922.4763858,x,1,0.783746924,None,794763,1,2023-10-16_12h10.11.535,Sequential learning ,2023.1.3,59.05979918
150,v,70,1,281,1,,,,,923.2850813,924.276341,924.276341,924.276341,924.276341,924.2931961,925.2767551,925.2767551,v,1,0.967032336,None,794763,1,2023-10-16_12h10.11.535,Sequential learning ,2023.1.3,59.05979918
50,c,70,2,282,2,,,,,926.2817976,927.2798146,927.2798146,927.2798146,927.2798146,927.2930544,928.2773263,928.2773263,c,1,0.776174024,None,794763,1,2023-10-16_12h10.11.535,Sequential learning ,2023.1.3,59.05979918
-150,z,70,3,283,3,,,,,929.083801,930.0763408,930.0763408,930.0763408,930.0763408,930.0943098,931.0770474,931.0770474,z,1,1.065252354,None,794763,1,2023-10-16_12h10.11.535,Sequential learning ,2023.1.3,59.05979918
-50,x,71,0,284,0,,,,,932.1680415,933.1609232,933.1609232,933.1609232,933.1609232,933.1775654,934.1602717,934.1602717,x,1,0.717104576,None,794763,1,2023-10-16_12h10.11.535,Sequential learning ,2023.1.3,59.05979918
150,v,71,1,285,1,,,,,934.90189,935.8936839,935.8936839,935.8936839,935.8936839,935.9110685,936.8940178,936.8940178,v,1,0.843316462,None,794763,1,2023-10-16_12h10.11.535,Sequential learning ,2023.1.3,59.05979918
50,c,71,2,286,2,,,,,937.767538,938.7605435,938.7605435,938.7605435,938.7605435,938.777391,939.7610276,939.7610276,c,1,4.610076169,None,794763,1,2023-10-16_12h10.11.535,Sequential learning ,2023.1.3,59.05979918
-150,z,71,3,287,3,,,,,944.4039602,945.3940285,945.3940285,945.3940285,945.3940285,945.4112939,946.3950105,946.3950105,z,1,0.703837256,None,794763,1,2023-10-16_12h10.11.535,Sequential learning ,2023.1.3,59.05979918
-50,x,72,0,288,0,,,,,947.1320027,948.1279705,948.1279705,948.1279705,948.1279705,948.1453585,949.1287108,949.1287108,x,1,1.031544531,None,794763,1,2023-10-16_12h10.11.535,Sequential learning ,2023.1.3,59.05979918
150,v,72,1,289,1,,,,,950.1861099,951.178358,951.178358,951.178358,951.178358,951.1950092,952.1784351,952.1784351,v,1,0.850126669,None,794763,1,2023-10-16_12h10.11.535,Sequential learning ,2023.1.3,59.05979918
50,c,72,2,290,2,,,,,953.0538342,954.0451275,954.0451275,954.0451275,954.0451275,954.0623682,955.0454045,955.0454045,c,1,0.73357623,None,794763,1,2023-10-16_12h10.11.535,Sequential learning ,2023.1.3,59.05979918
-150,z,72,3,291,3,,,,,955.8031816,956.7948601,956.7948601,956.7948601,956.7948601,956.8119768,957.7958538,957.7958538,z,1,0.654084138,None,794763,1,2023-10-16_12h10.11.535,Sequential learning ,2023.1.3,59.05979918
-50,x,73,0,292,0,,,,,958.4855979,959.4828144,959.4828144,959.4828144,959.4828144,959.4955338,960.4789876,960.4789876,x,1,0.867733463,None,794763,1,2023-10-16_12h10.11.535,Sequential learning ,2023.1.3,59.05979918
150,v,73,1,293,1,,,,,961.370827,962.3626641,962.3626641,962.3626641,962.3626641,962.3797787,963.3625896,963.3625896,v,1,1.109429019,None,794763,1,2023-10-16_12h10.11.535,Sequential learning ,2023.1.3,59.05979918
50,c,73,2,294,2,,,,,964.5023184,965.4956419,965.4956419,965.4956419,965.4956419,965.512862,966.4959421,966.4959421,c,1,0.719642685,None,794763,1,2023-10-16_12h10.11.535,Sequential learning ,2023.1.3,59.05979918
-150,z,73,3,295,3,,,,,967.2518335,968.2461562,968.2461562,968.2461562,968.2461562,968.2630601,969.246407,969.246407,z,1,0.70037487,None,794763,1,2023-10-16_12h10.11.535,Sequential learning ,2023.1.3,59.05979918
-50,x,74,0,296,0,,,,,969.9705797,970.9625332,970.9625332,970.9625332,970.9625332,970.979997,971.963299,971.963299,x,1,0.565596206,None,794763,1,2023-10-16_12h10.11.535,Sequential learning ,2023.1.3,59.05979918
150,v,74,1,297,1,,,,,972.5547181,973.5468568,973.5468568,973.5468568,973.5468568,973.5633186,974.5474145,974.5474145,v,1,2.953048331,None,794763,1,2023-10-16_12h10.11.535,Sequential learning ,2023.1.3,59.05979918
50,c,74,2,298,2,,,,,977.53649,978.5299485,978.5299485,978.5299485,978.5299485,978.5475078,979.5309572,979.5309572,c,1,0.903559295,None,794763,1,2023-10-16_12h10.11.535,Sequential learning ,2023.1.3,59.05979918
-150,z,74,3,299,3,,,,,980.4692256,981.4632487,981.4632487,981.4632487,981.4632487,981.481037,982.4640551,982.4640551,z,1,0.789762413,None,794763,1,2023-10-16_12h10.11.535,Sequential learning ,2023.1.3,59.05979918
-50,x,75,0,300,0,,,,,983.2881262,984.2806074,984.2806074,984.2806074,984.2806074,984.2975284,985.2811433,985.2811433,x,1,0.702096167,None,794763,1,2023-10-16_12h10.11.535,Sequential learning ,2023.1.3,59.05979918
150,v,75,1,301,1,,,,,986.018089,987.0137109,987.0137109,987.0137109,987.0137109,987.0306648,988.0147646,988.0147646,v,1,0.920184507,None,794763,1,2023-10-16_12h10.11.535,Sequential learning ,2023.1.3,59.05979918
50,c,75,2,302,2,,,,,988.9682132,989.9643274,989.9643274,989.9643274,989.9643274,989.9813948,990.9647822,990.9647822,c,1,1.250972118,None,794763,1,2023-10-16_12h10.11.535,Sequential learning ,2023.1.3,59.05979918
-150,z,75,3,303,3,,,,,992.2540741,993.2473681,993.2473681,993.2473681,993.2473681,993.2646478,994.2482373,994.2482373,z,1,0.92529209,None,794763,1,2023-10-16_12h10.11.535,Sequential learning ,2023.1.3,59.05979918
-50,x,76,0,304,0,,,,,995.2056814,996.1976878,996.1976878,996.1976878,996.1976878,996.2147629,997.1984946,997.1984946,x,1,0.559497488,None,794763,1,2023-10-16_12h10.11.535,Sequential learning ,2023.1.3,59.05979918
150,v,76,1,305,1,,,,,997.7886747,998.7809685,998.7809685,998.7809685,998.7809685,998.797464,999.7818117,999.7818117,v,1,0.954808037,None,794763,1,2023-10-16_12h10.11.535,Sequential learning ,2023.1.3,59.05979918
50,c,76,2,306,2,,,,,1000.77101,1001.765062,1001.765062,1001.765062,1001.765062,1001.782293,1002.765319,1002.765319,c,1,1.039588344,None,794763,1,2023-10-16_12h10.11.535,Sequential learning ,2023.1.3,59.05979918
-150,z,76,3,307,3,,,,,1003.836954,1004.83191,1004.83191,1004.83191,1004.83191,1004.849401,1005.83181,1005.83181,z,1,0.873497846,None,794763,1,2023-10-16_12h10.11.535,Sequential learning ,2023.1.3,59.05979918
-50,x,77,0,308,0,,,,,1006.742299,1007.731657,1007.731657,1007.731657,1007.731657,1007.749612,1008.732226,1008.732226,x,1,0.601655934,None,794763,1,2023-10-16_12h10.11.535,Sequential learning ,2023.1.3,59.05979918
150,v,77,1,309,1,,,,,1009.369216,1010.365386,1010.365386,1010.365386,1010.365386,1010.38304,1011.366128,1011.366128,v,1,0.867650523,None,794763,1,2023-10-16_12h10.11.535,Sequential learning ,2023.1.3,59.05979918
50,c,77,2,310,2,,,,,1012.27071,1013.265502,1013.265502,1013.265502,1013.265502,1013.283342,1014.266733,1014.266733,c,1,1.270457685,None,794763,1,2023-10-16_12h10.11.535,Sequential learning ,2023.1.3,59.05979918
-150,z,77,3,311,3,,,,,1015.574124,1016.570262,1016.570262,1016.570262,1016.570262,1016.583138,1017.566379,1017.566379,z,1,0.810276519,None,794763,1,2023-10-16_12h10.11.535,Sequential learning ,2023.1.3,59.05979918
-50,x,78,0,312,0,,,,,1018.405926,1019.399215,1019.399215,1019.399215,1019.399215,1019.416797,1020.400104,1020.400104,x,1,1.340921319,None,794763,1,2023-10-16_12h10.11.535,Sequential learning ,2023.1.3,59.05979918
150,v,78,1,313,1,,,,,1021.773488,1022.765892,1022.765892,1022.765892,1022.765892,1022.783052,1023.766819,1023.766819,v,1,0.750720451,None,794763,1,2023-10-16_12h10.11.535,Sequential learning ,2023.1.3,59.05979918
50,c,78,2,314,2,,,,,1024.541851,1025.533814,1025.533814,1025.533814,1025.533814,1025.550853,1026.533659,1026.533659,c,1,0.778569458,None,794763,1,2023-10-16_12h10.11.535,Sequential learning ,2023.1.3,59.05979918
-150,z,78,3,315,3,,,,,1027.340475,1028.334568,1028.334568,1028.334568,1028.334568,1028.350837,1029.333871,1029.333871,z,1,1.232474077,None,794763,1,2023-10-16_12h10.11.535,Sequential learning ,2023.1.3,59.05979918
-50,x,79,0,316,0,,,,,1030.591935,1031.583851,1031.583851,1031.583851,1031.583851,1031.600764,1032.583982,1032.583982,x,1,1.026013164,None,794763,1,2023-10-16_12h10.11.535,Sequential learning ,2023.1.3,59.05979918
150,v,79,1,317,1,,,,,1033.640521,1034.63381,1034.63381,1034.63381,1034.63381,1034.650859,1035.635082,1035.635082,v,1,0.81046225,None,794763,1,2023-10-16_12h10.11.535,Sequential learning ,2023.1.3,59.05979918
50,c,79,2,318,2,,,,,1036.474747,1037.467518,1037.467518,1037.467518,1037.467518,1037.48426,1038.468045,1038.468045,c,1,4.834151629,None,794763,1,2023-10-16_12h10.11.535,Sequential learning ,2023.1.3,59.05979918
-150,z,79,3,319,3,,,,,1043.327008,1044.321314,1044.321314,1044.321314,1044.321314,1044.334581,1045.31874,1045.31874,z,1,0.808395629,None,794763,1,2023-10-16_12h10.11.535,Sequential learning ,2023.1.3,59.05979918
-50,x,80,0,320,0,,,,,1046.15885,1047.150877,1047.150877,1047.150877,1047.150877,1047.168525,1048.151273,1048.151273,x,1,0.771478726,None,794763,1,2023-10-16_12h10.11.535,Sequential learning ,2023.1.3,59.05979918
150,v,80,1,321,1,,,,,1048.957096,1049.951342,1049.951342,1049.951342,1049.951342,1049.96901,1050.951923,1050.951923,v,1,4.915833949,None,794763,1,2023-10-16_12h10.11.535,Sequential learning ,2023.1.3,59.05979918
50,c,80,2,322,2,,,,,1055.895543,1056.885421,1056.885421,1056.885421,1056.885421,1056.902499,1057.886346,1057.886346,c,1,0.803988653,None,794763,1,2023-10-16_12h10.11.535,Sequential learning ,2023.1.3,59.05979918
-150,z,80,3,323,3,,,,,1058.725281,1059.718662,1059.718662,1059.718662,1059.718662,1059.736331,1060.719197,1060.719197,z,1,1.018066302,None,794763,1,2023-10-16_12h10.11.535,Sequential learning ,2023.1.3,59.05979918
-50,x,81,0,324,0,,,,,1061.773653,1062.769213,1062.769213,1062.769213,1062.769213,1062.786412,1063.769821,1063.769821,x,1,0.717931148,None,794763,1,2023-10-16_12h10.11.535,Sequential learning ,2023.1.3,59.05979918
150,v,81,1,325,1,,,,,1064.525663,1065.519187,1065.519187,1065.519187,1065.519187,1065.536963,1066.52,1066.52,v,1,1.500396759,None,794763,1,2023-10-16_12h10.11.535,Sequential learning ,2023.1.3,59.05979918
50,c,81,2,326,2,,,,,1068.044877,1069.036108,1069.036108,1069.036108,1069.036108,1069.053152,1070.036758,1070.036758,c,1,0.983546125,None,794763,1,2023-10-16_12h10.11.535,Sequential learning ,2023.1.3,59.05979918
-150,z,81,3,327,3,,,,,1071.044626,1072.037059,1072.037059,1072.037059,1072.037059,1072.053506,1073.037104,1073.037104,z,1,1.2072535,None,794763,1,2023-10-16_12h10.11.535,Sequential learning ,2023.1.3,59.05979918
-50,x,82,0,328,0,,,,,1074.276209,1075.27055,1075.27055,1075.27055,1075.27055,1075.287359,1076.270213,1076.270213,x,1,2.506998781,None,794763,1,2023-10-16_12h10.11.535,Sequential learning ,2023.1.3,59.05979918
150,v,82,1,329,1,,,,,1078.810943,1079.803318,1079.803318,1079.803318,1079.803318,1079.821369,1080.803827,1080.803827,v,1,0.988832854,None,794763,1,2023-10-16_12h10.11.535,Sequential learning ,2023.1.3,59.05979918
50,c,82,2,330,2,,,,,1081.825506,1082.820221,1082.820221,1082.820221,1082.820221,1082.838,1083.82162,1083.82162,c,1,0.88568927,None,794763,1,2023-10-16_12h10.11.535,Sequential learning ,2023.1.3,59.05979918
-150,z,82,3,331,3,,,,,1084.742768,1085.737051,1085.737051,1085.737051,1085.737051,1085.754516,1086.737497,1086.737497,z,1,0.784879375,None,794763,1,2023-10-16_12h10.11.535,Sequential learning ,2023.1.3,59.05979918
-50,x,83,0,332,0,,,,,1087.560801,1088.554909,1088.554909,1088.554909,1088.554909,1088.57107,1089.555127,1089.555127,x,1,3.000410381,None,794763,1,2023-10-16_12h10.11.535,Sequential learning ,2023.1.3,59.05979918
150,v,83,1,333,1,,,,,1092.580402,1093.570651,1093.570651,1093.570651,1093.570651,1093.588413,1094.571522,1094.571522,v,1,1.11619804,None,794763,1,2023-10-16_12h10.11.535,Sequential learning ,2023.1.3,59.05979918
50,c,83,2,334,2,,,,,1095.713082,1096.704925,1096.704925,1096.704925,1096.704925,1096.721908,1097.705344,1097.705344,c,1,1.515140961,None,794763,1,2023-10-16_12h10.11.535,Sequential learning ,2023.1.3,59.05979918
-150,z,83,3,335,3,,,,,1099.246208,1100.237928,1100.237928,1100.237928,1100.237928,1100.255711,1101.238883,1101.238883,z,1,2.859089644,None,794763,1,2023-10-16_12h10.11.535,Sequential learning ,2023.1.3,59.05979918
-50,x,84,0,336,0,,,,,1104.128752,1105.122507,1105.122507,1105.122507,1105.122507,1105.139066,1106.122464,1106.122464,x,1,1.345158358,None,794763,1,2023-10-16_12h10.11.535,Sequential learning ,2023.1.3,59.05979918
150,v,84,1,337,1,,,,,1107.496705,1108.488866,1108.488866,1108.488866,1108.488866,1108.505972,1109.48943,1109.48943,v,1,0.798056665,None,794763,1,2023-10-16_12h10.11.535,Sequential learning ,2023.1.3,59.05979918
50,c,84,2,338,2,,,,,1110.313133,1111.306795,1111.306795,1111.306795,1111.306795,1111.323134,1112.30619,1112.30619,c,1,0.652458161,None,794763,1,2023-10-16_12h10.11.535,Sequential learning ,2023.1.3,59.05979918
-150,z,84,3,339,3,,,,,1112.996448,1113.989662,1113.989662,1113.989662,1113.989662,1114.00681,1114.98995,1114.98995,z,1,0.768375971,None,794763,1,2023-10-16_12h10.11.535,Sequential learning ,2023.1.3,59.05979918
-50,x,85,0,340,0,,,,,1115.804706,1116.789349,1116.789349,1116.789349,1116.789349,1116.806857,1117.790562,1117.790562,x,1,0.787345127,None,794763,1,2023-10-16_12h10.11.535,Sequential learning ,2023.1.3,59.05979918
150,v,85,1,341,1,,,,,1118.611916,1119.60664,1119.60664,1119.60664,1119.60664,1119.623349,1120.606797,1120.606797,v,1,0.752794259,None,794763,1,2023-10-16_12h10.11.535,Sequential learning ,2023.1.3,59.05979918
50,c,85,2,342,2,,,,,1121.397602,1122.38944,1122.38944,1122.38944,1122.38944,1122.407069,1123.390281,1123.390281,c,1,0.742952328,None,794763,1,2023-10-16_12h10.11.535,Sequential learning ,2023.1.3,59.05979918
-150,z,85,3,343,3,,,,,1124.164908,1125.157184,1125.157184,1125.157184,1125.157184,1125.173782,1126.157699,1126.157699,z,1,1.406737029,None,794763,1,2023-10-16_12h10.11.535,Sequential learning ,2023.1.3,59.05979918
-50,x,86,0,344,0,,,,,1127.597424,1128.593728,1128.593728,1128.593728,1128.593728,1128.607831,1129.59106,1129.59106,x,1,2.397809537,None,794763,1,2023-10-16_12h10.11.535,Sequential learning ,2023.1.3,59.05979918
150,v,86,1,345,1,,,,,1132.016904,1133.008649,1133.008649,1133.008649,1133.008649,1133.024243,1134.008063,1134.008063,v,1,1.521398204,None,794763,1,2023-10-16_12h10.11.535,Sequential learning ,2023.1.3,59.05979918
50,c,86,2,346,2,,,,,1135.565129,1136.560969,1136.560969,1136.560969,1136.560969,1136.574602,1137.55775,1137.55775,c,1,0.800904007,None,794763,1,2023-10-16_12h10.11.535,Sequential learning ,2023.1.3,59.05979918
-150,z,86,3,347,3,,,,,1138.383139,1139.374379,1139.374379,1139.374379,1139.374379,1139.391419,1140.374992,1140.374992,z,1,0.748780597,None,794763,1,2023-10-16_12h10.11.535,Sequential learning ,2023.1.3,59.05979918
-50,x,87,0,348,0,,,,,1141.149282,1142.145558,1142.145558,1142.145558,1142.145558,1142.158565,1143.142096,1143.142096,x,1,1.835457545,None,794763,1,2023-10-16_12h10.11.535,Sequential learning ,2023.1.3,59.05979918
150,v,87,1,349,1,,,,,1145.014998,1146.008504,1146.008504,1146.008504,1146.008504,1146.025184,1147.009283,1147.009283,v,1,1.500646122,None,794763,1,2023-10-16_12h10.11.535,Sequential learning ,2023.1.3,59.05979918
50,c,87,2,350,2,,,,,1148.545539,1149.541702,1149.541702,1149.541702,1149.541702,1149.559265,1150.542437,1150.542437,c,1,0.873150693,None,794763,1,2023-10-16_12h10.11.535,Sequential learning ,2023.1.3,59.05979918
-150,z,87,3,351,3,,,,,1151.449406,1152.4427,1152.4427,1152.4427,1152.4427,1152.459661,1153.442377,1153.442377,z,1,1.001306161,None,794763,1,2023-10-16_12h10.11.535,Sequential learning ,2023.1.3,59.05979918
-50,x,88,0,352,0,,,,,1154.479938,1155.475143,1155.475143,1155.475143,1155.475143,1155.492862,1156.476083,1156.476083,x,1,0.651031117,None,794763,1,2023-10-16_12h10.11.535,Sequential learning ,2023.1.3,59.05979918
150,v,88,1,353,1,,,,,1157.165056,1158.159132,1158.159132,1158.159132,1158.159132,1158.176022,1159.159978,1159.159978,v,1,0.867345394,None,794763,1,2023-10-16_12h10.11.535,Sequential learning ,2023.1.3,59.05979918
50,c,88,2,354,2,,,,,1160.065017,1161.063306,1161.063306,1161.063306,1161.063306,1161.076028,1162.059925,1162.059925,c,1,0.734597699,None,794763,1,2023-10-16_12h10.11.535,Sequential learning ,2023.1.3,59.05979918
-150,z,88,3,355,3,,,,,1162.829213,1163.826499,1163.826499,1163.826499,1163.826499,1163.84345,1164.826515,1164.826515,z,1,0.835262936,None,794763,1,2023-10-16_12h10.11.535,Sequential learning ,2023.1.3,59.05979918
-50,x,89,0,356,0,,,,,1165.699279,1166.693572,1166.693572,1166.693572,1166.693572,1166.709857,1167.693261,1167.693261,x,1,1.244431764,None,794763,1,2023-10-16_12h10.11.535,Sequential learning ,2023.1.3,59.05979918
150,v,89,1,357,1,,,,,1168.966645,1169.959612,1169.959612,1169.959612,1169.959612,1169.977276,1170.960521,1170.960521,v,1,0.955356151,None,794763,1,2023-10-16_12h10.11.535,Sequential learning ,2023.1.3,59.05979918
50,c,89,2,358,2,,,,,1171.949851,1172.943431,1172.943431,1172.943431,1172.943431,1172.960144,1173.943927,1173.943927,c,1,0.867834003,None,794763,1,2023-10-16_12h10.11.535,Sequential learning ,2023.1.3,59.05979918
-150,z,89,3,359,3,,,,,1174.84877,1175.843348,1175.843348,1175.843348,1175.843348,1175.860949,1176.844408,1176.844408,z,1,0.776908209,None,794763,1,2023-10-16_12h10.11.535,Sequential learning ,2023.1.3,59.05979918
-50,x,90,0,360,0,,,,,1177.653729,1178.643645,1178.643645,1178.643645,1178.643645,1178.660856,1179.644043,1179.644043,x,1,0.704728507,None,794763,1,2023-10-16_12h10.11.535,Sequential learning ,2023.1.3,59.05979918
150,v,90,1,361,1,,,,,1180.382185,1181.376925,1181.376925,1181.376925,1181.376925,1181.395188,1182.378224,1182.378224,v,1,1.3723899,None,794763,1,2023-10-16_12h10.11.535,Sequential learning ,2023.1.3,59.05979918
50,c,90,2,362,2,,,,,1183.784303,1184.777547,1184.777547,1184.777547,1184.777547,1184.794693,1185.777446,1185.777446,c,1,0.766433386,None,794763,1,2023-10-16_12h10.11.535,Sequential learning ,2023.1.3,59.05979918
-150,z,90,3,363,3,,,,,1186.57073,1187.560716,1187.560716,1187.560716,1187.560716,1187.57832,1188.561496,1188.561496,z,1,1.150201362,None,794763,1,2023-10-16_12h10.11.535,Sequential learning ,2023.1.3,59.05979918
-50,x,91,0,364,0,,,,,1189.736165,1190.728053,1190.728053,1190.728053,1190.728053,1190.744843,1191.728688,1191.728688,x,1,0.775191621,None,794763,1,2023-10-16_12h10.11.535,Sequential learning ,2023.1.3,59.05979918
150,v,91,1,365,1,,,,,1192.534721,1193.528387,1193.528387,1193.528387,1193.528387,1193.545706,1194.52899,1194.52899,v,1,3.814774474,None,794763,1,2023-10-16_12h10.11.535,Sequential learning ,2023.1.3,59.05979918
50,c,91,2,366,2,,,,,1198.369016,1199.361835,1199.361835,1199.361835,1199.361835,1199.379007,1200.362321,1200.362321,c,1,1.045691731,None,794763,1,2023-10-16_12h10.11.535,Sequential learning ,2023.1.3,59.05979918
-150,z,91,3,367,3,,,,,1201.43619,1202.432046,1202.432046,1202.432046,1202.432046,1202.445335,1203.428968,1203.428968,z,1,1.118568994,None,794763,1,2023-10-16_12h10.11.535,Sequential learning ,2023.1.3,59.05979918
-50,x,92,0,368,0,,,,,1204.582913,1205.578731,1205.578731,1205.578731,1205.578731,1205.595852,1206.57947,1206.57947,x,1,0.875806287,None,794763,1,2023-10-16_12h10.11.535,Sequential learning ,2023.1.3,59.05979918
150,v,92,1,369,1,,,,,1207.486153,1208.479465,1208.479465,1208.479465,1208.479465,1208.496068,1209.479635,1209.479635,v,1,4.394823354,None,794763,1,2023-10-16_12h10.11.535,Sequential learning ,2023.1.3,59.05979918
50,c,92,2,370,2,,,,,1213.903575,1214.897182,1214.897182,1214.897182,1214.897182,1214.913208,1215.896493,1215.896493,c,1,0.609592611,None,794763,1,2023-10-16_12h10.11.535,Sequential learning ,2023.1.3,59.05979918
-150,z,92,3,371,3,,,,,1216.5377,1217.53011,1217.53011,1217.53011,1217.53011,1217.547223,1218.52993,1218.52993,z,1,0.751860002,None,794763,1,2023-10-16_12h10.11.535,Sequential learning ,2023.1.3,59.05979918
-50,x,93,0,372,0,,,,,1219.330274,1220.330058,1220.330058,1220.330058,1220.330058,1220.330058,1221.330708,1221.330708,x,1,8.240448137,None,794763,1,2023-10-16_12h10.11.535,Sequential learning ,2023.1.3,59.05979918
150,v,93,1,373,1,,,,,1229.604286,1230.597228,1230.597228,1230.597228,1230.597228,1230.615275,1231.598444,1231.598444,v,1,1.4092454,None,794763,1,2023-10-16_12h10.11.535,Sequential learning ,2023.1.3,59.05979918
50,c,93,2,374,2,,,,,1233.038419,1234.031146,1234.031146,1234.031146,1234.031146,1234.048362,1235.031299,1235.031299,c,1,1.485125391,None,794763,1,2023-10-16_12h10.11.535,Sequential learning ,2023.1.3,59.05979918
-150,z,93,3,375,3,,,,,1236.555308,1237.550524,1237.550524,1237.550524,1237.550524,1237.565089,1238.548676,1238.548676,z,1,0.624660342,None,794763,1,2023-10-16_12h10.11.535,Sequential learning ,2023.1.3,59.05979918
-50,x,94,0,376,0,,,,,1239.205048,1240.197547,1240.197547,1240.197547,1240.197547,1240.215317,1241.198744,1241.198744,x,1,0.638029934,None,794763,1,2023-10-16_12h10.11.535,Sequential learning ,2023.1.3,59.05979918
150,v,94,1,377,1,,,,,1241.86925,1242.864971,1242.864971,1242.864971,1242.864971,1242.882,1243.865472,1243.865472,v,1,1.556416695,None,794763,1,2023-10-16_12h10.11.535,Sequential learning ,2023.1.3,59.05979918
50,c,94,2,378,2,,,,,1245.455497,1246.448417,1246.448417,1246.448417,1246.448417,1246.465518,1247.448838,1247.448838,c,1,0.627908524,None,794763,1,2023-10-16_12h10.11.535,Sequential learning ,2023.1.3,59.05979918
-150,z,94,3,379,3,,,,,1248.106058,1249.098712,1249.098712,1249.098712,1249.098712,1249.117084,1250.099649,1250.099649,z,1,0.933391725,None,794763,1,2023-10-16_12h10.11.535,Sequential learning ,2023.1.3,59.05979918
-50,x,95,0,380,0,,,,,1251.070015,1252.065591,1252.065591,1252.065591,1252.065591,1252.082511,1253.066542,1253.066542,x,1,0.748438157,None,794763,1,2023-10-16_12h10.11.535,Sequential learning ,2023.1.3,59.05979918
150,v,95,1,381,1,,,,,1253.840364,1254.832876,1254.832876,1254.832876,1254.832876,1254.84948,1255.832346,1255.832346,v,1,1.090628902,None,794763,1,2023-10-16_12h10.11.535,Sequential learning ,2023.1.3,59.05979918
50,c,95,2,382,2,,,,,1256.956559,1257.949259,1257.949259,1257.949259,1257.949259,1257.966708,1258.949369,1258.949369,c,1,0.757494826,None,794763,1,2023-10-16_12h10.11.535,Sequential learning ,2023.1.3,59.05979918
-150,z,95,3,383,3,,,,,1259.740049,1260.732301,1260.732301,1260.732301,1260.732301,1260.749815,1261.733836,1261.733836,z,1,1.868272503,None,794763,1,2023-10-16_12h10.11.535,Sequential learning ,2023.1.3,59.05979918
-50,x,96,0,384,0,,,,,1263.637278,1264.633056,1264.633056,1264.633056,1264.633056,1264.650779,1265.633874,1265.633874,x,1,0.889434651,None,794763,1,2023-10-16_12h10.11.535,Sequential learning ,2023.1.3,59.05979918
150,v,96,1,385,1,,,,,1266.556259,1267.550163,1267.550163,1267.550163,1267.550163,1267.567508,1268.550594,1268.550594,v,1,0.750347692,None,794763,1,2023-10-16_12h10.11.535,Sequential learning ,2023.1.3,59.05979918
50,c,96,2,386,2,,,,,1269.337945,1270.332983,1270.332983,1270.332983,1270.332983,1270.350433,1271.333723,1271.333723,c,1,0.589274449,None,794763,1,2023-10-16_12h10.11.535,Sequential learning ,2023.1.3,59.05979918
-150,z,96,3,387,3,,,,,1271.957719,1272.950901,1272.950901,1272.950901,1272.950901,1272.967838,1273.951502,1273.951502,z,1,0.634464746,None,794763,1,2023-10-16_12h10.11.535,Sequential learning ,2023.1.3,59.05979918
-50,x,97,0,388,0,,,,,1274.62293,1275.619534,1275.619534,1275.619534,1275.619534,1275.634209,1276.618166,1276.618166,x,1,0.588046294,None,794763,1,2023-10-16_12h10.11.535,Sequential learning ,2023.1.3,59.05979918
150,v,97,1,389,1,,,,,1277.243365,1278.234724,1278.234724,1278.234724,1278.234724,1278.251279,1279.235029,1279.235029,v,1,2.266809174,None,794763,1,2023-10-16_12h10.11.535,Sequential learning ,2023.1.3,59.05979918
50,c,97,2,390,2,,,,,1281.539177,1282.534096,1282.534096,1282.534096,1282.534096,1282.551301,1283.535433,1283.535433,c,1,1.006896096,None,794763,1,2023-10-16_12h10.11.535,Sequential learning ,2023.1.3,59.05979918
-150,z,97,3,391,3,,,,,1284.575511,1285.567554,1285.567554,1285.567554,1285.567554,1285.584473,1286.568489,1286.568489,z,1,1.475832738,None,794763,1,2023-10-16_12h10.11.535,Sequential learning ,2023.1.3,59.05979918
-50,x,98,0,392,0,,,,,1288.07489,1289.06851,1289.06851,1289.06851,1289.06851,1289.084994,1290.068487,1290.068487,x,1,0.549002427,None,794763,1,2023-10-16_12h10.11.535,Sequential learning ,2023.1.3,59.05979918
150,v,98,1,393,1,,,,,1290.643264,1291.635032,1291.635032,1291.635032,1291.635032,1291.652278,1292.635344,1292.635344,v,1,1.266317951,None,794763,1,2023-10-16_12h10.11.535,Sequential learning ,2023.1.3,59.05979918
50,c,98,2,394,2,,,,,1293.926158,1294.918517,1294.918517,1294.918517,1294.918517,1294.935899,1295.919434,1295.919434,c,1,0.66798127,None,794763,1,2023-10-16_12h10.11.535,Sequential learning ,2023.1.3,59.05979918
-150,z,98,3,395,3,,,,,1296.623134,1297.620355,1297.620355,1297.620355,1297.620355,1297.636214,1298.619211,1298.619211,z,1,4.157904623,None,794763,1,2023-10-16_12h10.11.535,Sequential learning ,2023.1.3,59.05979918
-50,x,99,0,396,0,,,,,1302.810447,1303.802508,1303.802508,1303.802508,1303.802508,1303.819466,1304.80319,1304.80319,x,1,0.569950255,None,794763,1,2023-10-16_12h10.11.535,Sequential learning ,2023.1.3,59.05979918
150,v,99,1,397,1,,,,,1305.407968,1306.402197,1306.402197,1306.402197,1306.402197,1306.419969,1307.40301,1307.40301,v,1,0.848623099,None,794763,1,2023-10-16_12h10.11.535,Sequential learning ,2023.1.3,59.05979918
50,c,99,2,398,2,,,,,1308.27765,1309.269431,1309.269431,1309.269431,1309.269431,1309.286765,1310.270222,1310.270222,c,1,0.816981122,None,794763,1,2023-10-16_12h10.11.535,Sequential learning ,2023.1.3,59.05979918
-150,z,99,3,399,3,,,,,1311.112332,1312.103419,1312.103419,1312.103419,1312.103419,1312.119983,1313.103416,1313.103416,z,1,0.882091066,None,794763,1,2023-10-16_12h10.11.535,Sequential learning ,2023.1.3,59.05979918